time,battery,altitude,pressure,magX,magY,magZ,rotX,rotY,rotZ,ax,ay,az,vx,vy,vz,motor1,motor2,motor3,motor4,lat,lng,elevation,nbsat
1631735825.18712,85,0,99246,-92.70703125,72.3515625,31.95703125,-65.0,209.0,6877.0,32.7408332824707,106.12083435058594,-1046.9000244140625,0.0,0.0,0.0,0,0,0,0,0.0,0.0,0.0,0
1631735825.204805,85,0,99246,-96.140625,89.578125,28.40625,-95.0,248.0,6877.0,39.74166488647461,113.88429260253906,-1046.8138427734375,0.0,0.0,0.0,0,0,0,0,0.0,0.0,0.0,0
1631735825.4002,85,0,99243,-85.83984375,79.2421875,17.75390625,-64.0,291.0,6848.0,29.911678314208984,114.61132049560547,-1048.535888671875,0.0,0.0,0.0,0,0,0,0,0.0,0.0,0.0,0
1631735825.439195,85,0,99240,-99.57421875,79.2421875,31.95703125,46.0,153.0,6916.0,22.966167449951172,96.20684814453125,-1045.3682861328125,0.0,0.0,0.0,0,0,0,0,0.0,0.0,0.0,0
1631735825.622512,85,0,99236,-96.140625,82.6875,14.203125,69.0,228.0,6874.0,38.634429931640625,96.9125747680664,-1034.54345703125,0.0,0.0,0.0,0,0,0,0,0.0,0.0,0.0,0
1631735825.71092,85,0,99246,-85.83984375,93.0234375,10.65234375,22.0,197.0,6900.0,32.05563735961914,107.2449722290039,-1045.1566162109375,0.0,0.0,0.0,0,0,0,0,0.0,0.0,0.0,0
1631735825.86155,85,0,99243,-89.2734375,68.90625,14.203125,-13.0,333.0,6852.0,40.92721176147461,108.42631530761719,-1044.4964599609375,0.0,0.0,0.0,0,0,0,0,0.0,0.0,0.0,0
1631735825.944777,85,0,99246,-96.140625,96.46875,42.609375,-8.0,267.0,6960.0,30.74794578552246,98.41057586669922,-1038.87109375,0.0,0.0,0.0,0,0,0,0,0.0,0.0,0.0,0
1631735826.083443,85,0,99243,-92.70703125,99.9140625,31.95703125,-72.0,193.0,7166.0,29.472713470458984,110.1402816772461,-1052.947021484375,0.0,0.0,0.0,0,0,0,0,0.0,0.0,0.0,0
1631735826.220066,85,0,99246,-103.0078125,103.359375,28.40625,-102.0,173.0,7420.0,28.8765926361084,104.20946502685547,-1037.6573486328125,0.0,0.0,0.0,0,0,0,0,0.0,0.0,0.0,0
1631735826.313502,86,0,99236,-103.0078125,89.578125,42.609375,-93.0,305.0,7592.0,29.376218795776367,105.99484252929688,-1046.601806640625,0.0,0.0,0.0,0,0,0,0,0.0,0.0,0.0,0
1631735826.427554,86,0,99243,-113.30859375,86.1328125,24.85546875,-218.0,186.0,7529.0,16.248149871826172,114.837890625,-1046.2821044921875,0.0,0.0,0.0,0,0,0,0,0.0,0.0,0.0,0
1631735826.553989,86,0,99243,-109.875,75.796875,14.203125,-152.0,246.0,7426.0,37.14013671875,105.07470703125,-1037.9427490234375,0.0,0.0,0.0,0,0,0,0,0.0,0.0,0.0,0
1631735826.820323,86,0,99243,-113.30859375,86.1328125,24.85546875,-193.0,209.0,7505.0,43.120941162109375,106.3067855834961,-1038.229248046875,0.0,0.0,0.0,0,0,0,0,0.0,0.0,0.0,0
1631735826.822303,86,0,99233,-116.7421875,103.359375,35.5078125,-198.0,486.0,6917.0,46.260005950927734,111.64264678955078,-1029.7025146484375,0.0,0.0,0.0,0,0,0,0,0.0,0.0,0.0,0
1631735827.02165,86,0,99243,-113.30859375,93.0234375,24.85546875,95.0,-110.0,7502.0,16.948287963867188,97.6502914428711,-1045.0743408203125,0.0,0.0,0.0,0,0,0,0,0.0,0.0,0.0,0
1631735827.061261,86,0,99243,-99.57421875,86.1328125,17.75390625,145.0,680.0,7007.0,35.304264068603516,107.29368591308594,-1028.8251953125,0.0,0.0,0.0,0,0,0,0,0.0,0.0,0.0,0
1631735827.235082,86,0,99246,-92.70703125,86.1328125,24.85546875,174.0,69.0,7438.0,23.683462142944336,105.39616394042969,-1046.203125,0.0,0.0,0.0,0,0,0,0,0.0,0.0,0.0,0
1631735827.453828,86,0,99252,-85.83984375,86.1328125,39.05859375,-88.0,390.0,7241.0,43.8204231262207,115.21697998046875,-1038.0716552734375,0.0,0.0,0.0,0,0,0,0,0.0,0.0,0.0,0
1631735827.483854,86,0,99246,-103.0078125,89.578125,35.5078125,-126.0,436.0,7582.0,46.54482650756836,122.0399169921875,-1037.689208984375,0.0,0.0,0.0,0,0,0,0,0.0,0.0,0.0,0
1631735827.560083,86,0,99246,-96.140625,89.578125,42.609375,212.0,278.0,7916.0,35.680999755859375,99.88897705078125,-1038.434814453125,0.0,0.0,0.0,0,0,0,0,0.0,0.0,0.0,0
1631735827.696835,86,0,99240,-109.875,96.46875,49.7109375,647.0,-246.0,7697.0,7.912197589874268,90.51091003417969,-1029.5567626953125,0.0,0.0,0.0,0,0,0,0,0.0,0.0,0.0,0
1631735827.833541,86,0,99243,-109.875,89.578125,28.40625,672.0,-436.0,7751.0,6.3410797119140625,99.4779281616211,-1046.843994140625,0.0,0.0,0.0,0,0,0,0,0.0,0.0,0.0,0
1631735827.948869,86,0,99236,-99.57421875,93.0234375,39.05859375,571.0,-225.0,7854.0,28.583803176879883,106.592529296875,-1038.4420166015625,0.0,0.0,0.0,0,0,0,0,0.0,0.0,0.0,0
1631735828.043392,86,0,99243,-99.57421875,86.1328125,24.85546875,617.0,-235.0,8058.0,37.61576461791992,103.40541076660156,-1040.1270751953125,0.0,0.0,0.0,0,0,0,0,0.0,0.0,0.0,0
1631735828.163323,86,0,99252,-109.875,68.90625,28.40625,733.0,-476.0,7984.0,14.131882667541504,98.99208068847656,-1029.553955078125,0.0,0.0,0.0,0,0,0,0,0.0,0.0,0.0,0
1631735828.284346,86,0,99252,-99.57421875,79.2421875,24.85546875,776.0,-599.0,8092.0,-1.9018809795379639,92.55528259277344,-1045.531494140625,0.0,0.0,0.0,0,0,0,0,0.0,0.0,0.0,0
1631735828.550158,86,0,99246,-82.40625,96.46875,21.3046875,597.0,-87.0,7804.0,27.225540161132812,104.90226745605469,-1040.2342529296875,4.400996685028076,6.296963214874268,0.0,70,70,70,70,0.0,0.0,0.0,0
1631735828.552467,86,0,99240,-99.57421875,86.1328125,46.16015625,964.0,-617.0,7932.0,21.84262466430664,89.21920013427734,-1038.2818603515625,4.00372314453125,5.562779903411865,0.0,70,70,70,70,0.0,0.0,0.0,0
1631735828.652465,86,0,99240,-109.875,68.90625,28.40625,995.0,-300.0,7786.0,30.58333969116211,90.7374038696289,-1037.16650390625,3.613434314727783,7.020349502563477,0.0,70,70,70,70,0.0,0.0,0.0,0
1631735828.849262,86,0,99243,-103.0078125,75.796875,42.609375,981.0,-710.0,7970.0,2.1778435707092285,89.15103912353516,-1045.3455810546875,2.365605354309082,6.772945404052734,0.0,70,70,70,70,0.0,0.0,0.0,0
1631735828.899171,86,0,99246,-120.17578125,106.8046875,-3.55078125,928.0,-706.0,7797.0,48.240821838378906,105.78397369384766,-1021.7235717773438,6.241171836853027,6.897497653961182,0.0,70,70,70,70,0.0,0.0,0.0,0
1631735829.097276,86,0,99240,-181.98046875,65.4609375,31.95703125,909.0,-630.0,7550.0,37.47142791748047,100.06767272949219,-1030.4945068359375,7.944023609161377,6.2307047843933105,0.0,70,70,70,70,0.0,0.0,0.0,0
1631735829.289856,86,0,99243,-181.98046875,72.3515625,3.55078125,586.0,-557.0,8131.0,43.206214904785156,106.04879760742188,-1048.31591796875,7.950144290924072,7.4226908683776855,0.0,70,70,70,70,0.0,0.0,0.0,0
1631735829.324104,86,0,99249,-164.8125,48.234375,0.0,646.0,-763.0,7884.0,26.395877838134766,107.6134033203125,-1045.0369873046875,7.960714340209961,7.753606796264648,0.0,72,72,72,72,0.0,0.0,0.0,0
1631735829.399826,88,0,99240,-171.6796875,62.015625,7.1015625,798.0,-1149.0,7634.0,0.37862443923950195,86.51236724853516,-1074.2386474609375,7.063581943511963,6.85667610168457,0.0,72,72,72,72,0.0,0.0,0.0,0
1631735829.549647,88,0,99233,-171.6796875,48.234375,49.7109375,1319.0,-834.0,7755.0,-38.66407012939453,95.27631378173828,-1078.1163330078125,-1.4264920949935913,12.602355003356934,0.0,72,72,72,72,0.0,0.0,0.0,0
1631735829.677662,88,0,99236,-144.2109375,41.34375,-14.203125,1460.0,880.0,8341.0,93.8008041381836,41.56830596923828,-1055.1636962890625,1.7840830087661743,3.049684762954712,0.0,72,72,72,72,0.0,0.0,0.0,0
1631735829.771516,88,0,99246,-92.70703125,44.7890625,39.05859375,1724.0,823.0,8650.0,82.12931060791016,-32.659812927246094,-1029.223388671875,5.410665988922119,2.8190670013427734,0.0,72,72,72,72,0.0,0.0,0.0,0
1631735829.884881,88,0,99243,-113.30859375,51.6796875,67.46484375,489.0,-2315.0,7166.0,-3.706998825073242,47.970401763916016,-1011.3063354492188,15.045221328735352,3.5223915576934814,0.0,72,72,72,72,0.0,0.0,0.0,0
1631735830.012048,88,0,99249,-151.078125,27.5625,42.609375,468.0,-4853.0,6003.0,-88.42097473144531,163.11416625976562,-1101.3597412109375,18.864219665527344,14.094725608825684,0.0,86,100,70,94,0.0,0.0,0.0,0
1631735830.278047,88,0,97506,-127.04296875,31.0078125,39.05859375,315.0,-2866.0,6839.0,3.498896598815918,76.27931213378906,-1042.388427734375,11.945270538330078,6.752246379852295,0.0,102,83,93,72,0.0,0.0,0.0,0
1631735830.280355,88,0,99240,-144.2109375,34.453125,21.3046875,66.0,-2625.0,7109.0,-3.9794626235961914,94.7161865234375,-1019.5597534179688,19.576345443725586,-0.709896981716156,0.0,95,103,90,94,0.0,0.0,0.0,0
1631735830.477598,94,0,99246,-133.91015625,44.7890625,-3.55078125,0.0,-2567.0,7128.0,-17.56801986694336,88.94196319580078,-1046.9095458984375,15.210713386535645,1.7333687543869019,0.0,104,113,94,103,0.0,0.0,0.0,0
1631735830.521258,94,0,99246,-144.2109375,48.234375,7.1015625,-236.0,-2246.0,7271.0,-4.329422950744629,93.03797912597656,-1059.0523681640625,14.430893898010254,1.740326166152954,0.0,120,120,108,114,0.0,0.0,0.0,0
1631735830.693331,94,0,99249,-164.8125,62.015625,35.5078125,-858.0,-1952.0,7336.0,18.80523681640625,137.36407470703125,-1025.159912109375,19.713090896606445,1.4213755130767822,0.0,123,132,114,125,0.0,0.0,0.0,0
1631735830.799832,94,0,99246,-137.34375,48.234375,42.609375,-723.0,-2131.0,7492.0,-23.530553817749023,138.748291015625,-1060.1019287109375,14.230521202087402,0.8607426285743713,0.0,140,142,128,132,0.0,0.0,0.0,0
1631735830.923809,94,0,99249,-144.2109375,20.671875,42.609375,-248.0,-1894.0,7858.0,5.330395221710205,104.40645599365234,-1043.61279296875,13.890542030334473,0.001261302037164569,0.0,154,141,148,131,0.0,0.0,0.0,0
1631735831.017958,94,0,99240,-144.2109375,55.125,49.7109375,215.0,-2357.0,8075.0,-30.408700942993164,56.77043533325195,-1038.96484375,14.062792778015137,-4.090364456176758,0.0,158,164,148,152,0.0,0.0,0.0,0
1631735831.163396,94,0,99240,-151.078125,41.34375,35.5078125,90.0,-2470.0,8063.0,-25.844402313232422,56.85365676879883,-1052.35009765625,14.437679290771484,-6.628148078918457,0.0,166,166,152,155,0.0,0.0,0.0,0
1631735831.290969,94,0,99243,-157.9453125,48.234375,28.40625,-23.0,-2553.0,7999.0,-69.95718383789062,80.971435546875,-1081.2203369140625,10.645341873168945,-6.312284469604492,0.0,160,168,150,160,0.0,0.0,0.0,0
1631735831.385,94,317,99243,-154.51171875,37.8984375,-10.65234375,446.0,-2067.0,165088.0,-8.505050659179688,85.80738830566406,-1047.92724609375,15.273958206176758,1.6515358686447144,0.0,212,223,206,210,0.0,0.0,0.0,0
1631735831.521467,94,331,99240,-171.6796875,34.453125,21.3046875,632.0,-57.0,165464.0,30.466705322265625,71.53138732910156,-1119.775634765625,-40.305152893066406,16.94664192199707,0.0,239,243,255,238,0.0,0.0,0.0,0
1631735831.624339,94,337,99236,-178.546875,41.34375,0.0,476.0,339.0,165418.0,46.70270919799805,24.968854904174805,-1122.457763671875,-31.593252182006836,11.738957405090332,0.0,242,247,246,255,0.0,0.0,0.0,0
1631735831.735811,94,429,99236,-157.9453125,27.5625,21.3046875,134.0,2009.0,163615.0,6.932298183441162,190.17974853515625,-1000.6781616210938,-81.25341796875,24.814403533935547,0.0,184,219,212,223,0.0,0.0,0.0,0
1631735831.999563,94,442,99243,-151.078125,13.78125,21.3046875,784.0,2292.0,163362.0,106.47373962402344,78.05643463134766,-960.2438354492188,-65.82637786865234,28.801868438720703,0.0,192,221,214,230,0.0,0.0,0.0,0
1631735832.185973,94,450,99243,-164.8125,34.453125,-21.3046875,607.0,2370.0,162963.0,84.44647216796875,91.71878814697266,-1011.9503784179688,-6.326074600219727,-10.691322326660156,0.0,187,232,199,246,0.0,0.0,0.0,0
1631735832.20431,94,455,99236,-154.51171875,31.0078125,-3.55078125,171.0,2546.0,162089.0,26.09878921508789,96.36720275878906,-1026.9647216796875,-26.75918197631836,-12.134450912475586,0.0,176,238,192,253,0.0,0.0,0.0,0
1631735832.246991,94,459,99227,-171.6796875,27.5625,-7.1015625,-95.0,2789.0,161596.0,85.47144317626953,123.49652862548828,-1057.0135498046875,-56.673980712890625,-5.489854335784912,0.0,177,232,201,249,0.0,0.0,0.0,0
1631735832.490565,94,466,99243,-144.2109375,20.671875,0.0,-276.0,2551.0,161255.0,102.54654693603516,100.24299621582031,-1025.940185546875,-3.923025131225586,4.1697306632995605,0.0,178,235,188,250,0.0,0.0,0.0,0
1631735832.647892,94,493,99236,-164.8125,0.0,7.1015625,-150.0,1854.0,160784.0,53.93613815307617,138.69747924804688,-1041.7548828125,22.111953735351562,1.496384620666504,0.0,164,226,171,237,0.0,0.0,0.0,0
1631735832.657902,94,465,99236,-144.2109375,20.671875,-7.1015625,108.0,1752.0,160752.0,55.13520050048828,94.11935424804688,-1066.7554931640625,-6.639002799987793,16.995609283447266,0.0,188,233,198,240,0.0,0.0,0.0,0
1631735832.734296,94,475,99233,-144.2109375,6.890625,-14.203125,591.0,1140.0,160727.0,85.59019470214844,84.02490997314453,-1045.2177734375,-10.678998947143555,24.866113662719727,0.0,178,239,189,241,0.0,0.0,0.0,0
1631735832.903756,94,480,99243,-157.9453125,13.78125,0.0,1021.0,1324.0,160733.0,43.29508972167969,96.60560607910156,-1063.3681640625,-11.840612411499023,38.834747314453125,0.0,177,241,190,235,0.0,0.0,0.0,0
1631735833.004149,94,455,99249,-147.64453125,31.0078125,3.55078125,1321.0,1474.0,160895.0,77.69310760498047,57.39546203613281,-1053.2496337890625,-26.200231552124023,31.282974243164062,0.0,198,250,214,255,0.0,0.0,0.0,0
1631735833.114634,94,505,99236,-137.34375,20.671875,14.203125,1375.0,1915.0,161006.0,65.08018493652344,84.13027954101562,-1012.054931640625,-20.51169204711914,53.77635955810547,0.0,161,218,187,218,0.0,0.0,0.0,0
1631735833.23725,94,455,99236,-154.51171875,24.1171875,-17.75390625,1616.0,1567.0,160889.0,39.84913635253906,69.39661407470703,-1084.726806640625,17.144222259521484,37.80150604248047,0.0,215,252,228,255,0.0,0.0,0.0,0
1631735833.341702,94,459,115478,-157.9453125,0.0,-7.1015625,1588.0,1837.0,161140.0,42.60884094238281,83.59346008300781,-1104.3580322265625,-27.231121063232422,68.52105712890625,0.0,197,250,221,255,0.0,0.0,0.0,0
1631735833.465745,94,477,99233,-140.77734375,17.2265625,-10.65234375,1951.0,2208.0,161208.0,83.09452056884766,53.20772171020508,-1028.6090087890625,-42.617652893066406,97.48587036132812,0.0,187,242,211,242,0.0,0.0,0.0,0
1631735833.588885,94,475,99240,-151.078125,34.453125,0.0,1813.0,2149.0,160668.0,46.084808349609375,107.94709014892578,-1017.8909301757812,-20.72295570373535,18.806434631347656,0.0,182,254,224,252,0.0,0.0,0.0,0
1631735833.840663,94,476,99258,-171.6796875,13.78125,0.0,1379.0,1840.0,160534.0,79.07542419433594,70.5832290649414,-1024.687744140625,30.03623390197754,14.492751121520996,0.0,198,254,213,255,0.0,0.0,0.0,0
1631735833.842995,94,482,99243,-171.6796875,20.671875,-7.1015625,1359.0,1613.0,160934.0,94.88262176513672,49.15315246582031,-1034.9730224609375,-25.44632339477539,21.077653884887695,0.0,199,252,212,248,0.0,0.0,0.0,0
1631735834.101939,94,480,99246,-168.24609375,3.4453125,10.65234375,1629.0,1340.0,161034.0,96.06011199951172,79.7217025756836,-1054.4256591796875,21.499164581298828,33.297264099121094,0.0,205,255,225,250,0.0,0.0,0.0,0
1631735834.251017,94,481,99246,-151.078125,34.453125,14.203125,1413.0,1312.0,161141.0,56.89122772216797,92.9245376586914,-1075.926025390625,3.891599655151367,49.423484802246094,0.0,201,250,221,246,0.0,0.0,0.0,0
1631735834.278188,94,486,99243,-140.77734375,24.1171875,-3.55078125,1645.0,1298.0,161476.0,70.36869812011719,60.436195373535156,-1032.888427734375,11.590770721435547,33.998077392578125,0.0,202,253,226,246,0.0,0.0,0.0,0
1631735834.353335,94,501,99240,-151.078125,27.5625,-7.1015625,1839.0,1005.0,161340.0,52.30352020263672,33.96224594116211,-974.61767578125,9.432201385498047,44.06641387939453,0.0,164,225,191,217,0.0,0.0,0.0,0
1631735834.517908,93,533,99252,-161.37890625,3.4453125,3.55078125,1364.0,357.0,161230.0,34.5185661315918,80.1871109008789,-1074.439208984375,65.11902618408203,-6.455225467681885,0.0,179,230,193,218,0.0,0.0,0.0,0
1631735834.591478,93,507,99243,-178.546875,27.5625,0.0,711.0,369.0,161376.0,47.22076416015625,95.30571746826172,-1101.377197265625,-21.37295150756836,9.214001655578613,0.0,192,231,213,232,0.0,0.0,0.0,0
1631735834.747912,93,469,99240,-147.64453125,31.0078125,-3.55078125,761.0,875.0,161429.0,30.457508087158203,118.2459487915039,-1061.135986328125,14.009696960449219,6.721041202545166,0.0,195,249,214,244,0.0,0.0,0.0,0
1631735834.854798,93,452,99240,-164.8125,27.5625,-21.3046875,1017.0,984.0,161286.0,88.76991271972656,78.50257873535156,-1054.0699462890625,-15.077615737915039,38.566444396972656,0.0,189,254,220,249,0.0,0.0,0.0,0
1631735834.978558,93,452,99240,-154.51171875,3.4453125,-3.55078125,1386.0,1003.0,161128.0,72.5681381225586,61.392250061035156,-1045.4453125,5.598437309265137,29.693370819091797,0.0,190,255,218,244,0.0,0.0,0.0,0
1631735835.081605,93,459,99240,-154.51171875,3.4453125,-17.75390625,1583.0,538.0,161085.0,54.701900482177734,66.07024383544922,-1028.40869140625,33.857383728027344,32.6150016784668,0.0,188,255,220,241,0.0,0.0,0.0,0
1631735835.186013,93,463,99230,-178.546875,27.5625,7.1015625,1546.0,492.0,161158.0,76.4683609008789,41.3071174621582,-1035.4490966796875,8.56412410736084,12.443586349487305,0.0,194,255,211,241,0.0,0.0,0.0,0
1631735835.322052,93,470,99240,-157.9453125,20.671875,14.203125,1799.0,321.0,161260.0,51.68193817138672,49.77531051635742,-1031.2142333984375,-6.316245079040527,40.3399543762207,0.0,188,254,223,233,0.0,0.0,0.0,0
1631735835.581782,92,475,99252,-154.51171875,17.2265625,3.55078125,1577.0,209.0,161374.0,41.25992202758789,70.77963256835938,-1031.5430908203125,75.57882690429688,11.785014152526855,0.0,194,251,223,231,0.0,0.0,0.0,0
1631735835.584156,92,478,99243,-157.9453125,0.0,-7.1015625,1697.0,737.0,161223.0,71.04273986816406,41.3835334777832,-1045.422607421875,-11.316156387329102,60.003883361816406,0.0,184,254,224,236,0.0,0.0,0.0,0
1631735835.773013,92,440,99249,-147.64453125,17.2265625,24.85546875,2707.0,-486.0,160196.0,133.6954345703125,36.714134216308594,-857.7957763671875,31.6607666015625,-10.663690567016602,0.0,83,242,110,192,0.0,0.0,0.0,0
1631735835.986181,92,366,99246,-161.37890625,24.1171875,17.75390625,1526.0,-677.0,159962.0,13.401544570922852,67.74412536621094,-1099.12109375,35.42023468017578,-39.751136779785156,0.0,171,241,191,213,0.0,0.0,0.0,0
1631735836.006632,92,321,99252,-168.24609375,-3.4453125,17.75390625,1060.0,-474.0,160841.0,39.26243591308594,65.93193817138672,-1090.093994140625,-44.722023010253906,8.567386627197266,0.0,170,225,212,205,0.0,0.0,0.0,0
1631735836.077374,92,401,99246,-154.51171875,17.2265625,31.95703125,1293.0,-51.0,161131.0,75.96329498291016,27.81482696533203,-1015.919921875,6.1575608253479,-1.3015260696411133,0.0,117,173,146,148,0.0,0.0,0.0,0
1631735836.325602,92,411,99246,-151.078125,0.0,-7.1015625,1444.0,-123.0,161131.0,62.968204498291016,40.995941162109375,-982.8010864257812,8.752755165100098,-13.259346008300781,0.0,103,186,144,151,0.0,0.0,0.0,0
1631735836.358565,92,395,99252,-161.37890625,17.2265625,46.16015625,1430.0,-441.0,160958.0,72.33384704589844,29.199268341064453,-992.13671875,14.689140319824219,-5.82474422454834,0.0,130,205,161,179,0.0,0.0,0.0,0
1631735836.446832,92,360,99252,-133.91015625,3.4453125,31.95703125,746.0,-1262.0,160659.0,36.40629577636719,95.7709732055664,-1060.475341796875,6.77617073059082,-6.029325485229492,0.0,118,232,146,195,0.0,0.0,0.0,0
1631735836.592472,92,359,99243,-130.4765625,20.671875,42.609375,762.0,-838.0,161025.0,21.863000869750977,88.92110443115234,-1094.3853759765625,0.8123979568481445,2.2901058197021484,0.0,142,167,172,143,0.0,0.0,0.0,0
1631735836.695192,92,349,99252,-133.91015625,17.2265625,46.16015625,332.0,-395.0,161671.0,29.065494537353516,106.01556396484375,-1051.9542236328125,-17.34464454650879,-5.570845127105713,0.0,171,162,195,138,0.0,0.0,0.0,0
1631735836.800032,92,346,99246,-137.34375,0.0,49.7109375,248.0,-611.0,162007.0,27.305770874023438,85.46247863769531,-1038.025634765625,1.2273788452148438,17.05841636657715,0.0,153,172,181,144,0.0,0.0,0.0,0
1631735836.924098,92,366,99246,-154.51171875,37.8984375,-3.55078125,-99.0,-649.0,162439.0,108.41154479980469,68.77409362792969,-1012.6666870117188,-26.231727600097656,10.311103820800781,0.0,70,144,102,107,0.0,0.0,0.0,0
1631735837.196312,92,349,99246,-144.2109375,27.5625,35.5078125,-802.0,-727.0,162455.0,33.36604690551758,59.1265754699707,-1024.7667236328125,6.691728591918945,-15.476787567138672,0.0,107,192,127,163,0.0,0.0,0.0,0
1631735837.199198,92,345,99246,-130.4765625,34.453125,49.7109375,-992.0,-986.0,162627.0,36.51467514038086,143.0192108154297,-1074.6134033203125,-7.565098762512207,13.988926887512207,0.0,139,145,160,123,0.0,0.0,0.0,0
1631735837.298279,92,336,99252,-127.04296875,17.2265625,10.65234375,-715.0,-1381.0,162680.0,51.881935119628906,19.61605453491211,-1037.240478515625,-1.4197406768798828,15.824542045593262,0.0,110,197,133,160,0.0,0.0,0.0,0
1631735837.561112,92,300,99252,-161.37890625,31.0078125,3.55078125,-772.0,-1646.0,163016.0,-10.743409156799316,149.00189208984375,-1076.19580078125,-5.644926071166992,7.618294715881348,0.0,175,178,190,150,0.0,0.0,0.0,0
1631735837.720597,92,324,99252,-137.34375,27.5625,7.1015625,-970.0,-1498.0,162840.0,32.54420471191406,60.52301025390625,-989.494384765625,1.456521987915039,9.578088760375977,0.0,126,183,145,147,0.0,0.0,0.0,0
1631735837.731267,92,284,99246,-154.51171875,31.0078125,10.65234375,-1348.0,-1393.0,163165.0,69.36344909667969,113.71714782714844,-1054.08154296875,-4.500890731811523,-0.7827415466308594,0.0,157,187,174,157,0.0,0.0,0.0,0
1631735837.95816,92,310,99255,-120.17578125,10.3359375,10.65234375,-2116.0,-2036.0,163455.0,-13.739786148071289,84.43173217773438,-1022.8262939453125,8.80345344543457,-1.5218849182128906,0.0,122,165,140,140,0.0,0.0,0.0,0
1631735837.958933,92,331,99255,-137.34375,34.453125,-7.1015625,-2647.0,-2300.0,163250.0,28.858135223388672,82.56022644042969,-991.8765869140625,-0.4119281768798828,2.4703006744384766,0.0,70,128,84,98,0.0,0.0,0.0,0
1631735838.048141,92,321,99258,-154.51171875,24.1171875,17.75390625,-4585.0,-3147.0,163920.0,-70.60514831542969,165.50079345703125,-962.6912841796875,-202.06649780273438,24.710329055786133,0.0,89,78,94,70,0.0,0.0,0.0,0
1631735838.206962,92,305,99246,-140.77734375,44.7890625,3.55078125,-6682.0,-2708.0,164484.0,16.886735916137695,170.1927032470703,-1062.5308837890625,-39.30217742919922,-30.84239959716797,0.0,117,103,114,114,0.0,0.0,0.0,0
1631735838.312479,92,292,99249,-140.77734375,37.8984375,17.75390625,-8463.0,-547.0,164765.0,13.422866821289062,262.3978271484375,-1032.195068359375,6.840517997741699,-24.167884826660156,0.0,113,95,104,115,0.0,0.0,0.0,0
1631735838.437071,92,280,99246,-164.8125,48.234375,-28.40625,-8586.0,-942.0,166003.0,71.15965270996094,257.7130432128906,-1083.4078369140625,1.1807947158813477,16.97698974609375,0.0,159,84,140,82,0.0,0.0,0.0,0
1631735838.530781,92,269,99243,-157.9453125,55.125,35.5078125,-7886.0,-1874.0,168043.0,-8.313861846923828,259.57427978515625,-1129.623779296875,-8.744422912597656,25.363658905029297,0.0,113,70,92,76,0.0,0.0,0.0,0
1631735838.644895,92,276,99243,-151.078125,48.234375,21.3046875,-6884.0,-2081.0,169663.0,-41.38429641723633,217.03480529785156,-935.398681640625,-19.38780975341797,49.748313903808594,0.0,146,75,134,70,0.0,0.0,0.0,0
1631735838.772088,92,296,99246,-133.91015625,86.1328125,53.26171875,-6642.0,-1806.0,172455.0,40.95356369018555,101.83836364746094,-1071.536376953125,-15.10379409790039,26.683055877685547,0.0,167,70,146,72,0.0,0.0,0.0,0
1631735839.038334,92,274,99236,-151.078125,103.359375,42.609375,-8648.0,-3167.0,176704.0,-46.93901443481445,308.7780456542969,-1019.9071655273438,-29.3026180267334,40.15330505371094,0.0,250,70,206,85,0.0,0.0,0.0,0
1631735839.040171,92,176,99246,-164.8125,96.46875,28.40625,-8138.0,-2094.0,175767.0,-63.11064147949219,368.3250732421875,-1053.505615234375,-14.110822677612305,96.64326477050781,0.0,211,131,203,137,0.0,0.0,0.0,0
1631735839.235119,92,150,99243,-147.64453125,72.3515625,60.36328125,-5773.0,-2392.0,176010.0,-12.228670120239258,90.90089416503906,-1052.371337890625,-43.13996124267578,57.522010803222656,0.0,195,93,185,102,0.0,0.0,0.0,0
1631735839.282534,92,106,99246,-171.6796875,62.015625,28.40625,-5313.0,-946.0,175850.0,40.89875793457031,149.66705322265625,-1107.02685546875,-5.542363166809082,27.375823974609375,0.0,214,113,202,125,0.0,0.0,0.0,0
1631735839.453618,92,8,99252,-161.37890625,86.1328125,24.85546875,-5789.0,175.0,175061.0,3.4431333541870117,194.0899200439453,-992.1536254882812,13.434744834899902,19.366718292236328,0.0,209,128,199,142,0.0,0.0,0.0,0
1631735839.562614,92,-81,99249,-164.8125,82.6875,21.3046875,-7475.0,708.0,174753.0,138.46710205078125,195.8672637939453,-1088.8634033203125,151.85183715820312,-61.21150207519531,0.0,239,105,200,136,0.0,0.0,0.0,0
1631735839.665659,92,-116,99246,-137.34375,82.6875,-7.1015625,-7039.0,1485.0,174490.0,126.35015869140625,236.8015899658203,-971.3815307617188,278.590576171875,-177.6484832763672,0.0,218,123,189,150,0.0,0.0,0.0,0
1631735839.820583,92,-140,99252,-144.2109375,68.90625,14.203125,-6348.0,2220.0,174296.0,118.92970275878906,225.1168212890625,-978.1127319335938,263.3032531738281,-158.46475219726562,0.0,217,117,200,145,0.0,0.0,0.0,0
1631735839.899649,92,-143,99249,-144.2109375,68.90625,14.203125,-6192.0,2347.0,174288.0,129.1566162109375,199.74644470214844,-999.8173217773438,256.99267578125,-153.68588256835938,0.0,217,119,203,140,0.0,0.0,0.0,0
1631735840.050615,92,-186,99249,-157.9453125,82.6875,7.1015625,-4725.0,2999.0,173630.0,137.9615478515625,199.84780883789062,-1066.4693603515625,183.3408966064453,-85.75732421875,0.0,199,122,173,138,0.0,0.0,0.0,0
1631735840.159978,92,-208,99249,-133.91015625,79.2421875,10.65234375,-5149.0,3031.0,169090.0,60.46216583251953,248.54383850097656,-1041.9332275390625,313.5020446777344,-154.78514099121094,0.0,142,121,91,148,0.0,0.0,0.0,0
1631735840.281418,92,-223,99246,-116.7421875,55.125,7.1015625,-6312.0,3981.0,165884.0,37.484134674072266,286.6483154296875,-1007.508056640625,294.2689208984375,-21.98394775390625,0.0,105,101,70,134,0.0,0.0,0.0,0
1631735840.384521,92,-238,99252,-120.17578125,44.7890625,24.85546875,-5448.0,4852.0,163637.0,100.65899658203125,219.14376831054688,-1043.9456787109375,234.8154754638672,29.835933685302734,0.0,113,159,76,179,0.0,0.0,0.0,0
1631735840.494437,92,-260,99233,-130.4765625,41.34375,7.1015625,-4775.0,5054.0,161205.0,74.48533630371094,233.1617431640625,-1117.5379638671875,134.82080078125,45.819427490234375,0.0,106,161,83,200,0.0,0.0,0.0,0
1631735840.623687,92,-269,99243,-137.34375,34.453125,-14.203125,-4200.0,6692.0,158798.0,105.22685241699219,168.97625732421875,-1029.1407470703125,84.63951110839844,-18.953880310058594,0.0,90,166,70,208,0.0,0.0,0.0,0
1631735840.885525,92,-277,99249,-133.91015625,31.0078125,-3.55078125,-3616.0,5529.0,157299.0,186.43212890625,266.9626159667969,-995.706787109375,83.53086853027344,-17.839324951171875,0.0,110,168,70,193,0.0,0.0,0.0,0
1631735840.887411,92,-282,99249,-140.77734375,10.3359375,-10.65234375,-2480.0,1821.0,155462.0,85.16667175292969,202.27749633789062,-1053.4951171875,70.64573669433594,-37.98740005493164,0.0,115,175,70,185,0.0,0.0,0.0,0
1631735841.06636,92,-286,99243,-133.91015625,17.2265625,10.65234375,-2503.0,1186.0,154443.0,58.15052795410156,248.9609832763672,-1023.8097534179688,60.05567169189453,-45.84807586669922,0.0,120,168,70,181,0.0,0.0,0.0,0
1631735841.111474,92,-301,99246,-140.77734375,17.2265625,10.65234375,-2205.0,-276.0,154463.0,-42.419517517089844,234.3307342529297,-1155.7069091796875,56.85356140136719,-29.296558380126953,0.0,120,141,70,148,0.0,0.0,0.0,0
1631735841.305875,92,-298,99240,-137.34375,-6.890625,-14.203125,-516.0,-1203.0,152468.0,122.02104949951172,221.68063354492188,-1031.013671875,41.62898254394531,-25.317203521728516,0.0,122,193,70,182,0.0,0.0,0.0,0
1631735841.37436,92,0,99243,-140.77734375,3.4453125,53.26171875,-814.0,-4750.0,153389.0,103.65242767333984,151.404052734375,-708.8273315429688,0.0,0.0,0.0,0,0,0,0,0.0,0.0,0.0,0
1631735841.527384,92,0,99249,-137.34375,34.453125,78.1171875,2711.0,-25169.0,149549.0,-398.72857666015625,147.19284057617188,-1082.2862548828125,0.0,0.0,0.0,0,0,0,0,0.0,0.0,0.0,0
1631735841.664624,92,0,99249,-154.51171875,10.3359375,188.19140625,-1309.0,-34786.0,153607.0,-1032.202880859375,218.51377868652344,-1239.4803466796875,0.0,0.0,0.0,0,0,0,0,0.0,0.0,0.0,0
1631735841.765387,92,0,67648,-89.2734375,-6.890625,142.03125,-10516.0,-31246.0,161638.0,-300.35369873046875,304.6085510253906,-832.2693481445312,0.0,0.0,0.0,0,0,0,0,0.0,0.0,0.0,0
1631735841.894772,92,0,99249,-120.17578125,44.7890625,95.87109375,-11150.0,-30423.0,161897.0,-356.4923400878906,320.5398864746094,-767.8619995117188,0.0,0.0,0.0,0,0,0,0,0.0,0.0,0.0,0
1631735841.988731,92,0,99246,-171.6796875,-27.5625,120.7265625,-11443.0,-28114.0,160669.0,-329.1029052734375,351.4916687011719,-826.8284912109375,0.0,0.0,0.0,0,0,0,0,0.0,0.0,0.0,0
1631735842.101886,92,0,99246,-133.91015625,65.4609375,117.17578125,-11535.0,-26967.0,158978.0,-366.81024169921875,430.1171569824219,-922.7357177734375,0.0,0.0,0.0,0,0,0,0,0.0,0.0,0.0,0
1631735842.226158,92,0,99249,-103.0078125,-68.90625,127.828125,1775.0,-25324.0,149360.0,-341.3675842285156,164.8376922607422,-911.6448974609375,0.0,0.0,0.0,0,0,0,0,0.0,0.0,0.0,0
1631735842.498492,92,0,99252,-96.140625,-48.234375,92.3203125,1968.0,-18894.0,150630.0,-292.7793273925781,166.6050262451172,-969.4288330078125,0.0,0.0,0.0,0,0,0,0,0.0,0.0,0.0,0
1631735842.500715,92,0,99240,-109.875,-41.34375,56.8125,2024.0,-10561.0,152740.0,-181.50006103515625,195.7581024169922,-1079.24560546875,0.0,0.0,0.0,0,0,0,0,0.0,0.0,0.0,0
1631735842.600456,92,0,99243,-96.140625,-55.125,42.609375,1839.0,-6964.0,152924.0,-47.268638610839844,159.27041625976562,-1076.0286865234375,0.0,0.0,0.0,0,0,0,0,0.0,0.0,0.0,0
