time,battery,altitude,pressure,magX,magY,magZ,rotX,rotY,rotZ,ax,ay,az,vx,vy,vz,motor1,motor2,motor3,motor4,lat,lng,elevation,nbsat
1631795335.37955,73,83,99809,357.09375,137.8125,-14.203125,-4353.0,-1181.0,-10476.0,20.638248443603516,155.14625549316406,-1164.848876953125,-52.08885192871094,-77.5277099609375,0.0,255,190,217,221,0.0,0.0,0.0,0
1631795335.482702,73,213,99788,326.19140625,120.5859375,-17.75390625,-3878.0,226.0,-7851.0,-11.855827331542969,141.05055236816406,-1140.8858642578125,-174.8730010986328,-174.311767578125,0.0,255,189,240,246,0.0,0.0,0.0,0
1631795335.611131,73,313,99796,343.359375,96.46875,-35.5078125,-3660.0,156.0,-6067.0,32.56900405883789,266.5245361328125,-1157.894287109375,-82.85733795166016,-125.10652160644531,0.0,255,209,243,227,0.0,0.0,0.0,0
1631795335.706313,73,260,99796,346.79296875,86.1328125,-24.85546875,-3412.0,2377.0,-433.0,14.95461654663086,249.59027099609375,-1124.0777587890625,52.6301155090332,-128.98101806640625,0.0,255,204,248,238,0.0,0.0,0.0,0
1631795335.829039,73,312,99803,339.92578125,65.4609375,-31.95703125,-1521.0,2360.0,4832.0,-0.6152257919311523,136.2182159423828,-1158.478271484375,-261.1044616699219,-269.69256591796875,0.0,255,197,249,246,0.0,0.0,0.0,0
1631795336.087393,73,413,99790,329.625,34.453125,-28.40625,332.0,-150.0,11875.0,6.436905860900879,94.00961303710938,-1123.2135009765625,-252.6458740234375,-204.6559600830078,0.0,255,201,242,235,0.0,0.0,0.0,0
1631795336.277458,73,471,99790,326.19140625,-10.3359375,-46.16015625,492.0,-879.0,15361.0,-12.054924011230469,152.7178955078125,-1097.8846435546875,-247.38072204589844,-173.7716064453125,0.0,255,207,249,236,0.0,0.0,0.0,0
1631795336.296978,73,657,99796,298.72265625,-44.7890625,-60.36328125,-1172.0,-2070.0,29410.0,10.571687698364258,248.61402893066406,-1113.17626953125,-156.33670043945312,-84.83067321777344,0.0,255,202,240,232,0.0,0.0,0.0,0
1631795336.337664,71,760,99799,281.5546875,-82.6875,-42.609375,-1519.0,-1679.0,39944.0,-42.252803802490234,130.54483032226562,-1075.2921142578125,-187.73313903808594,-147.57305908203125,0.0,255,199,238,233,0.0,0.0,0.0,0
1631795336.58088,71,872,99790,230.05078125,-134.3671875,-60.36328125,-1493.0,-2351.0,51646.0,8.527791976928711,154.05722045898438,-1044.0489501953125,-149.54078674316406,-175.8517303466797,0.0,255,202,239,231,0.0,0.0,0.0,0
1631795336.73719,71,997,99785,192.28125,-165.375,-49.7109375,-1173.0,-2408.0,63826.0,14.763165473937988,102.4845962524414,-1048.6912841796875,-122.01742553710938,-191.87347412109375,0.0,253,191,229,229,0.0,0.0,0.0,0
1631795336.747419,71,1042,99788,137.34375,-172.265625,-56.8125,-878.0,-2339.0,67956.0,-2.311979293823242,184.14404296875,-1043.547607421875,-85.76734924316406,-155.70538330078125,0.0,253,193,231,231,0.0,0.0,0.0,0
1631795336.824373,71,1263,99788,61.8046875,-192.9375,-56.8125,-531.0,-1576.0,90361.0,29.577499389648438,130.38792419433594,-1033.4276123046875,-39.03837585449219,-177.91600036621094,0.0,253,196,235,230,0.0,0.0,0.0,0
1631795336.993294,71,1349,99785,10.30078125,-203.2734375,-31.95703125,-356.0,-1120.0,99972.0,-11.048032760620117,92.11414337158203,-1068.900634765625,-11.398862838745117,-173.34829711914062,0.0,253,190,235,237,0.0,0.0,0.0,0
1631795337.098147,71,1509,99788,-41.203125,-158.484375,-35.5078125,1157.0,328.0,117490.0,16.438230514526367,222.09375,-979.8587036132812,-12.835965156555176,-118.52964782714844,0.0,252,155,255,185,0.0,0.0,0.0,0
1631795337.223457,71,1612,99773,-92.70703125,-155.0390625,-24.85546875,1513.0,-484.0,125831.0,53.35662841796875,241.3957977294922,-911.1707153320312,43.53365707397461,-63.45611572265625,0.0,255,142,250,150,0.0,0.0,0.0,0
1631795337.430031,71,1711,99776,-127.04296875,-106.8046875,-39.05859375,506.0,-607.0,130170.0,18.805511474609375,175.5840301513672,-890.754150390625,88.31092834472656,62.661991119384766,0.0,255,130,243,149,0.0,0.0,0.0,0
1631795337.536477,71,1741,99779,-106.44140625,-148.1484375,-39.05859375,-181.0,-456.0,130229.0,15.50568962097168,172.91749572753906,-897.36181640625,80.99656677246094,86.98543548583984,0.0,255,128,241,151,0.0,0.0,0.0,0
1631795337.559735,71,1787,99776,-120.17578125,-120.5859375,-39.05859375,-1259.0,-238.0,128465.0,-4.798759460449219,139.1851043701172,-910.7664184570312,77.14739227294922,152.6373291015625,0.0,255,125,239,156,0.0,0.0,0.0,0
1631795337.824078,71,1860,99779,-72.10546875,-175.7109375,-39.05859375,-3037.0,-201.0,118319.0,10.194814682006836,157.3308563232422,-904.2188110351562,70.74647521972656,146.953125,0.0,244,130,229,163,0.0,0.0,0.0,0
1631795337.824384,71,1861,99773,-68.671875,-186.046875,-42.609375,-3087.0,-195.0,117217.0,-43.450042724609375,44.256229400634766,-890.752197265625,69.8776626586914,162.15052795410156,0.0,248,129,234,165,0.0,0.0,0.0,0
1631795337.921639,71,1880,99779,-41.203125,-186.046875,-49.7109375,-3241.0,-177.0,110627.0,10.076546669006348,163.91812133789062,-920.4586181640625,99.0335464477539,230.49093627929688,0.0,238,147,224,170,0.0,0.0,0.0,0
1631795338.122979,71,1897,99779,0.0,-192.9375,-49.7109375,-4303.0,613.0,100117.0,1.1862516403198242,162.81759643554688,-921.373779296875,94.56694793701172,178.00149536132812,0.0,237,151,228,180,0.0,0.0,0.0,0
1631795338.170287,71,1888,99779,72.10546875,-203.2734375,-60.36328125,-4312.0,505.0,91495.0,1.881448745727539,209.77879333496094,-999.5590209960938,75.22615814208984,112.64979553222656,0.0,242,170,232,194,0.0,0.0,0.0,0
1631795338.41132,71,1882,99776,58.37109375,-217.0546875,-60.36328125,-4081.0,469.0,88696.0,-17.847148895263672,182.64759826660156,-1021.1614379882812,55.02771759033203,76.7975082397461,0.0,253,164,242,190,0.0,0.0,0.0,0
1631795338.436835,71,1822,99782,188.84765625,-196.3828125,-46.16015625,-1915.0,678.0,66377.0,-28.041257858276367,116.28080749511719,-1041.8966064453125,78.92192077636719,-69.3829345703125,0.0,246,166,237,201,0.0,0.0,0.0,0
1631795338.606733,71,1820,99779,188.84765625,-196.3828125,-46.16015625,-1839.0,706.0,65938.0,-19.927509307861328,208.4512176513672,-1034.7760009765625,78.14923858642578,-70.74101257324219,0.0,242,172,235,201,0.0,0.0,0.0,0
1631795338.704325,71,1743,99767,315.890625,-89.578125,-49.7109375,-1180.0,2491.0,38531.0,-21.020776748657227,131.52662658691406,-1059.6197509765625,47.566650390625,-156.91653442382812,0.0,255,163,238,216,0.0,0.0,0.0,0
1631795338.836264,71,1720,99785,326.19140625,-65.4609375,-39.05859375,-596.0,1157.0,29614.0,-49.35313415527344,90.5450210571289,-1050.1595458984375,39.152503967285156,-130.1863250732422,0.0,255,172,228,220,0.0,0.0,0.0,0
1631795338.945181,71,1697,99782,357.09375,-27.5625,-42.609375,-273.0,1124.0,20470.0,-9.71703052520752,239.23939514160156,-1076.61962890625,85.88922119140625,-172.78627014160156,0.0,255,172,233,217,0.0,0.0,0.0,0
1631795339.067073,71,1681,99785,381.12890625,3.4453125,-53.26171875,662.0,1861.0,12850.0,-11.656435012817383,214.20741271972656,-1069.13525390625,90.05149841308594,-186.17779541015625,0.0,255,172,232,219,0.0,0.0,0.0,0
1631795339.169683,71,1653,99779,377.6953125,62.015625,-42.609375,1786.0,2542.0,4962.0,-23.685407638549805,192.91824340820312,-1066.9921875,64.65007781982422,-240.92312622070312,0.0,249,180,227,235,0.0,0.0,0.0,0
1631795339.275502,70,1641,99776,367.39453125,58.5703125,-31.95703125,2574.0,2323.0,2222.0,-5.894260883331299,269.6737976074219,-1073.20849609375,-12.186861991882324,-187.02638244628906,0.0,249,180,232,230,0.0,0.0,0.0,0
1631795339.407131,70,1638,99776,381.12890625,72.3515625,-60.36328125,3174.0,1196.0,1205.0,9.232964515686035,151.96810913085938,-1061.025390625,-19.603910446166992,-161.84222412109375,0.0,249,176,223,232,0.0,0.0,0.0,0
1631795339.670718,70,1624,99788,377.6953125,55.125,-42.609375,3920.0,385.0,1987.0,-25.45997428894043,179.406005859375,-1066.7398681640625,-56.653987884521484,-99.39034271240234,0.0,251,177,232,230,0.0,0.0,0.0,0
1631795339.671859,70,1617,99788,367.39453125,51.6796875,-60.36328125,3696.0,-221.0,3962.0,5.766072750091553,135.56089782714844,-1077.935546875,-74.6944580078125,-53.383995056152344,0.0,255,171,229,230,0.0,0.0,0.0,0
1631795339.852048,70,1603,99785,370.828125,27.5625,-42.609375,2902.0,-863.0,7010.0,-37.15848922729492,67.87067413330078,-1084.9471435546875,-48.67692184448242,-60.3790397644043,0.0,255,173,219,241,0.0,0.0,0.0,0
1631795339.895715,70,1597,99776,367.39453125,10.3359375,-53.26171875,2576.0,-1345.0,11037.0,4.581767559051514,201.2907257080078,-1069.65185546875,-44.16318130493164,10.08512020111084,0.0,255,179,224,234,0.0,0.0,0.0,0
1631795340.091782,70,1587,99779,339.92578125,-10.3359375,-67.46484375,1801.0,-1560.0,16105.0,19.153133392333984,186.9550018310547,-1086.2373046875,0.06306885927915573,45.224937438964844,0.0,253,178,221,235,0.0,0.0,0.0,0
1631795340.19237,70,1585,99770,346.79296875,-24.1171875,-53.26171875,1740.0,-650.0,21092.0,3.44828200340271,196.11341857910156,-1066.9620361328125,6.460682392120361,47.79542922973633,0.0,253,180,226,235,0.0,0.0,0.0,0
1631795340.313382,70,1582,99785,346.79296875,-37.8984375,-39.05859375,1829.0,-452.0,22309.0,35.98402404785156,186.89157104492188,-1088.541259765625,3.4624850749969482,63.5265007019043,0.0,253,180,229,235,0.0,0.0,0.0,0
1631795340.449997,68,1577,99790,329.625,-103.359375,-63.9140625,1937.0,414.0,31608.0,7.934759140014648,120.01640319824219,-1074.7403564453125,53.26255798339844,86.60404205322266,0.0,253,175,223,240,0.0,0.0,0.0,0
1631795340.529603,68,1583,99790,288.421875,-117.140625,-49.7109375,1601.0,874.0,41592.0,21.357501983642578,195.6212158203125,-1081.369873046875,46.008056640625,148.63624572753906,0.0,254,170,231,226,0.0,0.0,0.0,0
1631795340.680381,68,1578,99782,284.98828125,-127.4765625,-31.95703125,1277.0,869.0,47946.0,-45.34917449951172,160.3465576171875,-1065.338623046875,38.96328353881836,134.84884643554688,0.0,255,173,232,232,0.0,0.0,0.0,0
1631795340.783467,68,1582,99779,254.0859375,-151.59375,-42.609375,1661.0,847.0,54171.0,-26.437973022460938,92.94622802734375,-1046.6075439453125,52.4598388671875,228.52757263183594,0.0,255,169,236,228,0.0,0.0,0.0,0
1631795340.886218,68,1583,99785,226.6171875,-158.484375,-35.5078125,1053.0,650.0,56867.0,9.170063972473145,196.375244140625,-1044.5057373046875,48.93376922607422,267.7020568847656,0.0,255,173,235,224,0.0,0.0,0.0,0
1631795341.010849,68,1582,99788,202.58203125,-175.7109375,-39.05859375,199.0,722.0,61014.0,-18.26657485961914,90.63461303710938,-1081.365234375,97.73560333251953,279.0049133300781,0.0,255,173,231,230,0.0,0.0,0.0,0
1631795341.284513,68,1589,99790,188.84765625,-168.8203125,-17.75390625,-475.0,1492.0,65453.0,-32.61084747314453,165.1948699951172,-1042.2977294921875,52.62240982055664,308.33258056640625,0.0,253,166,242,224,0.0,0.0,0.0,0
1631795341.285592,67,1596,99776,175.11328125,-168.8203125,-39.05859375,-1419.0,1118.0,68273.0,-13.446057319641113,163.26904296875,-1064.643310546875,46.78179931640625,293.1754455566406,0.0,253,171,233,223,0.0,0.0,0.0,0
1631795341.385983,67,1606,99785,178.546875,-199.828125,-56.8125,-2023.0,559.0,70154.0,-13.29337215423584,159.76641845703125,-1047.24951171875,44.61368179321289,273.8285217285156,0.0,253,169,231,220,0.0,0.0,0.0,0
1631795341.649312,67,1614,99770,137.34375,-192.9375,-56.8125,-2249.0,16.0,71404.0,32.54481506347656,167.40367126464844,-1046.486083984375,-16.05929946899414,245.25831604003906,0.0,253,171,227,222,0.0,0.0,0.0,0
1631795341.797007,67,1618,99782,164.8125,-192.9375,-42.609375,-2239.0,-508.0,71786.0,1.466113805770874,204.03819274902344,-1036.1494140625,24.409086227416992,222.98959350585938,0.0,253,174,228,217,0.0,0.0,0.0,0
1631795341.825602,67,1628,99779,161.37890625,-175.7109375,-46.16015625,-2342.0,-416.0,71985.0,30.162822723388672,132.55892944335938,-1059.041748046875,31.869421005249023,197.65065002441406,0.0,253,167,228,221,0.0,0.0,0.0,0
1631795341.870654,67,1640,99782,157.9453125,-192.9375,-21.3046875,-1617.0,291.0,70400.0,20.879724502563477,246.27841186523438,-1069.4215087890625,45.4119758605957,138.50628662109375,0.0,253,167,237,208,0.0,0.0,0.0,0
1631795342.065158,67,1642,99785,181.98046875,-175.7109375,-46.16015625,-1796.0,405.0,69039.0,-32.47203826904297,79.29082489013672,-1044.37060546875,31.496366500854492,118.24764251708984,0.0,253,163,223,229,0.0,0.0,0.0,0
1631795342.138215,67,1648,99782,181.98046875,-182.6015625,-39.05859375,-1924.0,675.0,66300.0,13.429624557495117,203.950927734375,-1036.499267578125,36.046146392822266,100.0839614868164,0.0,253,163,233,216,0.0,0.0,0.0,0
1631795342.294713,67,1657,99782,212.8828125,-165.375,-42.609375,-1900.0,240.0,60501.0,-22.90540885925293,101.59622192382812,-1044.8839111328125,75.77980041503906,83.84174346923828,0.0,253,164,226,220,0.0,0.0,0.0,0
1631795342.395529,66,1669,99770,250.65234375,-148.1484375,-39.05859375,-1237.0,492.0,52930.0,-21.494976043701172,107.7813491821289,-1040.4190673828125,31.49430274963379,21.214059829711914,0.0,253,160,224,220,0.0,0.0,0.0,0
1631795342.525881,66,1679,99770,281.5546875,-117.140625,-28.40625,-596.0,565.0,44577.0,-3.6491122245788574,191.58602905273438,-1048.6668701171875,55.83450698852539,66.69691467285156,0.0,253,160,233,208,0.0,0.0,0.0,0
1631795342.628841,66,1685,99782,312.45703125,-79.2421875,-31.95703125,-699.0,1005.0,35202.0,-21.692182540893555,159.0130615234375,-1054.0152587890625,39.62989044189453,32.03569793701172,0.0,249,164,231,212,0.0,0.0,0.0,0
1631795342.733266,66,1684,99770,322.7578125,-82.6875,-42.609375,-418.0,1065.0,32107.0,-3.326963424682617,213.50352478027344,-1085.93603515625,50.53519058227539,26.510379791259766,0.0,249,166,238,206,0.0,0.0,0.0,0
1631795342.857975,66,1693,99779,322.7578125,-20.671875,-28.40625,-481.0,1041.0,22421.0,9.918501853942871,148.41697692871094,-1065.9541015625,54.44017028808594,47.19504165649414,0.0,249,165,226,212,0.0,0.0,0.0,0
1631795343.126971,66,1710,99773,370.828125,34.453125,-28.40625,-547.0,1238.0,8623.0,-16.132911682128906,149.87106323242188,-1066.5721435546875,75.28526306152344,103.26988220214844,0.0,232,174,209,223,0.0,0.0,0.0,0
1631795343.128012,66,1726,99796,381.12890625,86.1328125,-31.95703125,-810.0,1608.0,1296.0,9.407790184020996,179.8316192626953,-1030.26953125,53.89594650268555,4.100282669067383,0.0,227,178,208,225,0.0,0.0,0.0,0
1631795343.330642,66,1732,99770,387.99609375,72.3515625,-24.85546875,-167.0,1546.0,-1179.0,-4.73353910446167,164.59921264648438,-1051.735107421875,35.11296463012695,-40.50284194946289,0.0,227,177,212,221,0.0,0.0,0.0,0
1631795343.36981,66,1739,99788,374.26171875,99.9140625,-31.95703125,490.0,1449.0,-5538.0,2.798783779144287,173.96070861816406,-1054.5552978515625,69.47614288330078,-30.543853759765625,0.0,223,182,205,230,0.0,0.0,0.0,0
1631795343.541983,66,1738,99788,384.5625,103.359375,-21.3046875,559.0,1591.0,-6092.0,4.548635959625244,162.66720581054688,-1033.8419189453125,64.22103118896484,-41.32908248901367,0.0,233,174,219,217,0.0,0.0,0.0,0
1631795343.760162,66,1735,99785,370.828125,89.578125,-21.3046875,732.0,1726.0,-8219.0,-5.328432559967041,153.89720153808594,-1046.077880859375,-0.9607771635055542,-38.537803649902344,0.0,234,175,221,220,0.0,0.0,0.0,0
1631795343.789953,66,1747,99782,363.9609375,124.03125,-28.40625,408.0,1177.0,-9611.0,7.058446884155273,163.142333984375,-1031.6929931640625,-20.100553512573242,-10.335556030273438,0.0,241,166,224,209,0.0,0.0,0.0,0
1631795343.990239,66,1742,99776,374.26171875,127.4765625,-46.16015625,762.0,739.0,-10273.0,23.204715728759766,157.30601501464844,-853.6981201171875,-36.816471099853516,-2.1286659240722656,0.0,209,150,196,188,0.0,0.0,0.0,0
1631795344.032927,66,1727,99790,370.828125,117.140625,-42.609375,1440.0,113.0,-10733.0,-10.46915054321289,186.3867950439453,-908.8003540039062,-7.524067401885986,21.23288345336914,0.0,210,165,202,198,0.0,0.0,0.0,0
1631795344.134359,66,1686,99790,384.5625,130.921875,-28.40625,935.0,625.0,-11248.0,-6.060760974884033,174.21055603027344,-996.6763916015625,-44.615455627441406,60.2194709777832,0.0,213,176,206,215,0.0,0.0,0.0,0
1631795344.242654,66,1661,99782,367.39453125,148.1484375,-24.85546875,430.0,269.0,-11496.0,-4.115963935852051,204.6362762451172,-1020.5619506835938,-44.6335563659668,76.8662338256836,0.0,216,185,204,219,0.0,0.0,0.0,0
1631795344.370066,65,1614,99788,370.828125,137.8125,-35.5078125,-632.0,-458.0,-11917.0,7.814040184020996,161.7271270751953,-1048.62841796875,-43.06350326538086,102.09687805175781,0.0,226,187,208,223,0.0,0.0,0.0,0
1631795344.463888,65,1563,99782,357.09375,130.921875,-49.7109375,-1553.0,-572.0,-12191.0,4.027910232543945,160.17337036132812,-1092.4918212890625,-72.47722625732422,100.49838256835938,0.0,234,190,216,229,0.0,0.0,0.0,0
1631795344.577881,65,1518,99796,381.12890625,134.3671875,-31.95703125,-1450.0,-636.0,-12391.0,7.742627143859863,186.03280639648438,-1112.6732177734375,-85.34032440185547,24.044233322143555,0.0,241,187,229,221,0.0,0.0,0.0,0
1631795344.711277,65,1466,99785,360.52734375,148.1484375,-46.16015625,-1227.0,-138.0,-12538.0,14.020187377929688,187.71932983398438,-1124.2843017578125,-52.61450958251953,49.20296859741211,0.0,249,184,239,224,0.0,0.0,0.0,0
1631795344.970916,65,1435,99776,357.09375,124.03125,-14.203125,-1331.0,580.0,-12686.0,27.300411224365234,155.7307891845703,-1141.7061767578125,-48.66505432128906,23.721664428710938,0.0,229,200,224,247,0.0,0.0,0.0,0
1631795344.97214,65,1406,99782,370.828125,144.703125,-42.609375,-1306.0,456.0,-12606.0,21.270526885986328,162.26673889160156,-1144.480712890625,-109.86129760742188,20.479644775390625,0.0,236,194,228,244,0.0,0.0,0.0,0
1631795345.155588,65,1384,99782,363.9609375,137.8125,-35.5078125,-1306.0,-919.0,-12327.0,-5.950788974761963,177.733642578125,-1144.390625,-170.10316467285156,43.76193618774414,0.0,244,193,231,235,0.0,0.0,0.0,0
1631795345.198851,65,1379,99793,339.92578125,141.2578125,-46.16015625,-2292.0,-3324.0,-11987.0,12.413290023803711,164.1423797607422,-1114.0506591796875,-163.3148651123047,17.07562828063965,0.0,255,190,225,230,0.0,0.0,0.0,0
1631795345.395751,65,1383,99788,353.66015625,120.5859375,-53.26171875,-2917.0,-4280.0,-11747.0,9.731306076049805,138.93368530273438,-1072.177001953125,-82.3883285522461,-50.08512878417969,0.0,255,185,220,230,0.0,0.0,0.0,0
1631795345.46373,65,1395,99788,367.39453125,106.8046875,-39.05859375,-1135.0,-4209.0,-11109.0,-12.913780212402344,161.0625762939453,-1094.6392822265625,-17.715877532958984,-72.77128601074219,0.0,255,193,228,219,0.0,0.0,0.0,0
1631795345.622191,65,1420,99788,360.52734375,127.4765625,-60.36328125,565.0,-3509.0,-10371.0,11.079261779785156,180.0052947998047,-1085.5576171875,77.64741516113281,-57.65134811401367,0.0,249,190,231,209,0.0,0.0,0.0,0
1631795345.701762,65,1432,99779,357.09375,110.25,-49.7109375,1222.0,-1597.0,-8759.0,-12.192821502685547,139.2164306640625,-1064.0762939453125,111.15367126464844,-39.132057189941406,0.0,245,191,228,222,0.0,0.0,0.0,0
1631795345.856614,65,1446,99776,353.66015625,93.0234375,-31.95703125,929.0,-878.0,-7954.0,8.313170433044434,156.0643310546875,-1079.7371826171875,138.6615447998047,-36.73225021362305,0.0,245,186,225,220,0.0,0.0,0.0,0
1631795345.984355,65,1469,99782,363.9609375,103.359375,-28.40625,501.0,1500.0,-5443.0,-9.07720947265625,137.63150024414062,-1064.944580078125,125.57349395751953,-50.51226043701172,0.0,245,175,233,220,0.0,0.0,0.0,0
1631795346.078157,65,1509,99782,370.828125,89.578125,-28.40625,232.0,1020.0,-2323.0,-21.800302505493164,136.7686309814453,-1039.6112060546875,103.59839630126953,21.70689582824707,0.0,250,171,234,207,0.0,0.0,0.0,0
1631795346.198822,65,1534,99788,370.828125,75.796875,-42.609375,-1387.0,904.0,342.0,2.9553894996643066,124.18290710449219,-1002.1358642578125,140.34759521484375,-14.995437622070312,0.0,255,170,224,213,0.0,0.0,0.0,0
1631795346.317392,64,1546,99790,384.5625,62.015625,-35.5078125,-1300.0,1280.0,4466.0,28.39029312133789,131.1914520263672,-1058.21630859375,121.47049713134766,-114.81732940673828,0.0,255,175,228,215,0.0,0.0,0.0,0
1631795346.584387,64,1568,99782,374.26171875,17.2265625,-39.05859375,387.0,1233.0,9661.0,9.894290924072266,137.49560546875,-995.6436157226562,110.4827651977539,-130.7713165283203,0.0,255,171,234,205,0.0,0.0,0.0,0
1631795346.5856,64,1572,99770,377.6953125,20.671875,-21.3046875,1318.0,1249.0,13607.0,20.137393951416016,151.55540466308594,-1042.2615966796875,134.28445434570312,-145.2578582763672,0.0,255,176,234,204,0.0,0.0,0.0,0
1631795346.705416,64,1579,99782,346.79296875,-51.6796875,-17.75390625,2980.0,2682.0,25370.0,25.554582595825195,226.16653442382812,-1055.834716796875,149.63006591796875,-131.70510864257812,0.0,245,179,241,208,0.0,0.0,0.0,0
1631795346.952536,64,1597,99785,319.32421875,-93.0234375,-3.55078125,2648.0,3119.0,35546.0,2.9787888526916504,254.02752685546875,-1075.6197509765625,-0.1326313018798828,-86.64849090576172,0.0,245,166,240,204,0.0,0.0,0.0,0
1631795347.111876,64,1598,99782,274.6875,-117.140625,-7.1015625,1776.0,2247.0,42640.0,40.99224090576172,210.84222412109375,-1052.858642578125,-34.12623977661133,8.936851501464844,0.0,245,180,232,210,0.0,0.0,0.0,0
1631795347.122234,64,1599,99773,295.2890625,-103.359375,-14.203125,1349.0,1980.0,44949.0,46.4047966003418,231.48280334472656,-1049.7802734375,-49.07762908935547,5.4211297035217285,0.0,245,181,228,213,0.0,0.0,0.0,0
1631795347.349388,64,1611,99779,140.77734375,-203.2734375,-46.16015625,-2367.0,-47.0,72246.0,-30.256221771240234,131.11080932617188,-1058.4520263671875,-49.5683479309082,3.675245761871338,0.0,255,176,208,225,0.0,0.0,0.0,0
1631795347.350493,64,1626,99779,75.5390625,-206.71875,-28.40625,-4920.0,-499.0,88752.0,-25.145601272583008,129.84710693359375,-1003.81884765625,16.84136390686035,-84.63848876953125,0.0,255,164,195,225,0.0,0.0,0.0,0
1631795347.43401,64,1632,99779,13.734375,-179.15625,-56.8125,-3020.0,-35.0,102604.0,43.77608871459961,219.3973846435547,-1009.1707763671875,31.165742874145508,-204.85894775390625,0.0,255,181,209,218,0.0,0.0,0.0,0
1631795347.598106,64,1632,99782,-30.90234375,-168.8203125,-39.05859375,-853.0,-512.0,111074.0,27.185470581054688,179.08218383789062,-1024.911865234375,32.58943176269531,-197.8035125732422,0.0,255,183,204,214,0.0,0.0,0.0,0
1631795347.697832,64,1630,99779,-82.40625,-144.703125,-7.1015625,1604.0,-704.0,123411.0,-7.752923965454102,90.4910659790039,-1028.114501953125,94.82550048828125,-152.8356170654297,0.0,253,183,209,218,0.0,0.0,0.0,0
1631795347.828134,64,1627,99793,-99.57421875,-134.3671875,-17.75390625,1876.0,-504.0,126801.0,-5.536373138427734,151.54795837402344,-1044.7369384765625,91.3358383178711,-94.96138763427734,0.0,253,179,208,221,0.0,0.0,0.0,0
1631795347.931608,64,1620,99776,-140.77734375,-99.9140625,-31.95703125,770.0,1007.0,137091.0,40.488685607910156,213.99188232421875,-1002.3067626953125,105.21183776855469,-31.54644012451172,0.0,253,185,214,221,0.0,0.0,0.0,0
1631795348.036104,64,1618,99776,-130.4765625,-96.46875,-28.40625,795.0,1616.0,139368.0,-12.466861724853516,95.25564575195312,-1061.8829345703125,81.24661254882812,-1.6249117851257324,0.0,253,180,216,228,0.0,0.0,0.0,0
1631795348.1602,64,1591,99779,-164.8125,-55.125,-28.40625,1606.0,2106.0,147717.0,-14.4581298828125,101.46160888671875,-1079.9796142578125,-8.413028717041016,48.41394805908203,0.0,249,188,223,222,0.0,0.0,0.0,0
1631795348.43201,63,1577,99779,-178.546875,-48.234375,-14.203125,1288.0,1109.0,151350.0,12.228148460388184,164.6953887939453,-1097.54736328125,3.3452353477478027,165.5719757080078,0.0,249,191,223,220,0.0,0.0,0.0,0
1631795348.43306,63,1583,99776,-161.37890625,-44.7890625,-24.85546875,-584.0,1909.0,153952.0,-7.763945579528809,100.07180786132812,-1058.40869140625,-5.45244026184082,183.3539581298828,0.0,249,183,224,227,0.0,0.0,0.0,0
1631795348.62298,63,1578,99785,-206.015625,-6.890625,-42.609375,-527.0,2441.0,154965.0,-9.296689987182617,115.6973876953125,-1081.1239013671875,-77.59612274169922,196.54248046875,0.0,248,185,228,228,0.0,0.0,0.0,0
1631795348.666401,63,1575,99788,-199.1484375,-34.453125,-35.5078125,-1042.0,1494.0,154899.0,40.54601287841797,143.0823974609375,-1083.1038818359375,-158.85289001464844,273.61376953125,0.0,245,186,225,223,0.0,0.0,0.0,0
1631795348.853235,63,1572,99776,-192.28125,-41.34375,-28.40625,-2366.0,16.0,154418.0,41.35702896118164,144.92251586914062,-1073.1783447265625,-145.76983642578125,211.06640625,0.0,245,186,219,218,0.0,0.0,0.0,0
1631795348.899655,63,1583,99770,-157.9453125,-20.671875,-49.7109375,-1886.0,-207.0,153604.0,45.55917739868164,140.82568359375,-1115.647216796875,-185.40516662597656,155.1558074951172,0.0,245,180,234,214,0.0,0.0,0.0,0
1631795349.075033,63,1592,99779,-178.546875,-41.34375,-42.609375,-527.0,-517.0,152279.0,33.41168975830078,222.22683715820312,-1072.013671875,-206.79696655273438,115.9979476928711,0.0,245,179,244,198,0.0,0.0,0.0,0
1631795349.161533,63,1613,99785,-188.84765625,-58.5703125,-17.75390625,-327.0,-2480.0,147406.0,50.217857360839844,204.78904724121094,-1045.8970947265625,-127.25784301757812,165.10604858398438,0.0,255,176,237,187,0.0,0.0,0.0,0
1631795349.314548,63,1631,99773,-154.51171875,-79.2421875,-24.85546875,-957.0,-2763.0,143116.0,19.85373306274414,223.82391357421875,-1038.5228271484375,-114.27935028076172,171.19964599609375,0.0,255,169,237,184,0.0,0.0,0.0,0
1631795349.442416,62,1650,99773,-151.078125,-103.359375,-35.5078125,-1021.0,-2521.0,135273.0,10.934942245483398,144.18560791015625,-1007.992431640625,-105.48881530761719,133.7125244140625,0.0,255,159,244,184,0.0,0.0,0.0,0
1631795349.53584,62,1653,99790,-109.875,-117.140625,-28.40625,-801.0,-2393.0,132079.0,9.233644485473633,183.4082794189453,-1007.880126953125,-75.62372589111328,123.45399475097656,0.0,255,169,242,179,0.0,0.0,0.0,0
1631795349.672629,62,1653,99788,-44.63671875,-175.7109375,-24.85546875,-2036.0,-1876.0,114859.0,17.47732925415039,186.06532287597656,-1010.4884033203125,7.8473896980285645,82.59076690673828,0.0,245,182,237,197,0.0,0.0,0.0,0
1631795349.76647,62,1659,99779,10.30078125,-189.4921875,-31.95703125,-937.0,-497.0,104614.0,4.661087512969971,158.35740661621094,-1035.1583251953125,-25.396347045898438,74.98090362548828,0.0,239,180,232,204,0.0,0.0,0.0,0
1631795349.880406,62,1650,99776,61.8046875,-206.71875,-42.609375,-728.0,-19.0,93429.0,31.697107315063477,246.40069580078125,-1019.0687866210938,2.964137077331543,130.39256286621094,0.0,232,193,236,207,0.0,0.0,0.0,0
1631795350.014928,62,1635,99782,99.57421875,-189.4921875,-53.26171875,-2352.0,744.0,82551.0,30.643922805786133,222.24142456054688,-1084.0367431640625,73.02481079101562,81.58999633789062,0.0,237,196,225,221,0.0,0.0,0.0,0
1631795350.273816,62,1625,99779,133.91015625,-189.4921875,-46.16015625,-4129.0,1158.0,71760.0,18.627466201782227,147.53201293945312,-1065.6817626953125,95.69837188720703,-15.924031257629395,0.0,246,184,227,223,0.0,0.0,0.0,0
1631795350.274936,62,1612,99788,202.58203125,-161.9296875,-39.05859375,-2915.0,749.0,59924.0,-26.411231994628906,156.37939453125,-1067.746826171875,95.67269897460938,-105.34370422363281,0.0,248,187,228,221,0.0,0.0,0.0,0
1631795350.467354,62,1596,99773,264.38671875,-113.6953125,-24.85546875,-1507.0,1081.0,49086.0,9.996077537536621,240.40574645996094,-1068.841552734375,114.25386047363281,-113.389404296875,0.0,247,194,233,215,0.0,0.0,0.0,0
1631795350.680419,62,1584,99788,315.890625,-96.46875,-28.40625,-416.0,1876.0,37426.0,6.400911331176758,191.9346923828125,-1069.555908203125,151.74989318847656,-131.79759216308594,0.0,250,195,229,217,0.0,0.0,0.0,0
1631795350.696572,62,1576,99779,339.92578125,-44.7890625,-17.75390625,313.0,1799.0,27493.0,-25.437625885009766,221.68316650390625,-1065.54541015625,142.79840087890625,-97.70584106445312,0.0,245,202,232,213,0.0,0.0,0.0,0
1631795350.778273,62,1572,99782,367.39453125,-3.4453125,-39.05859375,-506.0,2303.0,16698.0,17.751949310302734,244.81077575683594,-1088.1419677734375,146.11944580078125,-43.859619140625,0.0,235,211,215,227,0.0,0.0,0.0,0
1631795350.928431,62,1571,99782,384.5625,62.015625,-21.3046875,-1022.0,3426.0,6896.0,4.982660293579102,156.3011474609375,-1072.517822265625,151.0560760498047,-105.0499496459961,0.0,223,210,206,246,0.0,0.0,0.0,0
1631795351.00346,62,1583,99788,394.86328125,86.1328125,-24.85546875,-879.0,4793.0,29.0,3.6849374771118164,167.8227996826172,-1039.941650390625,96.76435852050781,-104.57164764404297,0.0,215,208,204,248,0.0,0.0,0.0,0
1631795351.150252,62,1584,99779,377.6953125,89.578125,-35.5078125,-729.0,4770.0,-1669.0,-0.45448875427246094,259.1591796875,-1065.0848388671875,46.795997619628906,-131.33642578125,0.0,223,201,217,235,0.0,0.0,0.0,0
1631795351.286689,62,1592,99776,398.296875,124.03125,-35.5078125,944.0,2150.0,-7028.0,6.435002326965332,214.39918518066406,-1090.4273681640625,-53.75917053222656,-117.3299789428711,0.0,230,203,221,220,0.0,0.0,0.0,0
1631795351.389795,60,1595,99785,363.9609375,110.25,0.0,1745.0,875.0,-8642.0,7.307915210723877,193.97398376464844,-856.7247314453125,-47.751888275146484,-63.20880889892578,0.0,202,159,190,169,0.0,0.0,0.0,0
1631795351.49383,60,1579,99773,384.5625,110.25,-42.609375,1658.0,379.0,-9784.0,11.973087310791016,204.49720764160156,-904.533447265625,-94.55545806884766,-29.455810546875,0.0,202,172,195,195,0.0,0.0,0.0,0
1631795351.614662,60,1562,99773,350.2265625,124.03125,-35.5078125,-77.0,595.0,-10595.0,6.727096080780029,179.39053344726562,-932.9468383789062,-88.59601593017578,-11.486660957336426,0.0,214,168,199,202,0.0,0.0,0.0,0
1631795351.735381,60,1533,99782,377.6953125,137.8125,-35.5078125,-7.0,638.0,-10967.0,7.100561141967773,186.14219665527344,-971.8843994140625,-100.1704330444336,-6.055524826049805,0.0,211,183,209,207,0.0,0.0,0.0,0
1631795351.995019,60,1479,99779,370.828125,137.8125,-42.609375,-676.0,398.0,-11459.0,0.6883509159088135,163.9580841064453,-1020.4474487304688,-129.5944061279297,-30.243085861206055,0.0,228,182,217,217,0.0,0.0,0.0,0
1631795352.18489,60,1412,99770,357.09375,124.03125,-42.609375,418.0,-1578.0,-11807.0,20.050750732421875,176.34422302246094,-1090.5372314453125,-152.99966430664062,2.0345304012298584,0.0,237,193,224,215,0.0,0.0,0.0,0
1631795352.201938,60,1354,99773,363.9609375,151.59375,-21.3046875,-1675.0,-51.0,-11900.0,15.320452690124512,169.61817932128906,-1102.7222900390625,-96.68838500976562,-4.792200088500977,0.0,237,184,228,235,0.0,0.0,0.0,0
1631795352.236763,60,1313,99782,360.52734375,127.4765625,-39.05859375,-2001.0,158.0,-12189.0,10.96807861328125,179.94497680664062,-1103.0289306640625,-162.67279052734375,-39.089542388916016,0.0,234,199,218,239,0.0,0.0,0.0,0
1631795352.48818,60,1284,99782,360.52734375,141.2578125,-31.95703125,-1336.0,-1474.0,-12459.0,23.350223541259766,205.89259338378906,-1129.09814453125,-170.77210998535156,-6.190398693084717,0.0,241,200,225,228,0.0,0.0,0.0,0
1631795352.64496,60,1250,99785,357.09375,172.265625,-49.7109375,-1756.0,-2111.0,-12839.0,40.92731857299805,161.9310760498047,-1150.5211181640625,-121.30924987792969,-72.90768432617188,0.0,246,196,224,239,0.0,0.0,0.0,0
1631795352.655488,60,1239,99790,350.2265625,151.59375,-42.609375,-1143.0,-1524.0,-13147.0,18.48285484313965,151.7073211669922,-1113.0626220703125,-86.56744384765625,-108.19047546386719,0.0,241,197,220,239,0.0,0.0,0.0,0
1631795352.731846,60,1236,99779,346.79296875,148.1484375,-31.95703125,-693.0,-1032.0,-13312.0,8.440360069274902,185.1269989013672,-1120.7513427734375,-63.895896911621094,-124.34496307373047,0.0,235,198,219,241,0.0,0.0,0.0,0
1631795352.901014,60,1243,99785,350.2265625,151.59375,-35.5078125,-226.0,-668.0,-13250.0,-1.4329942464828491,190.16763305664062,-1092.7645263671875,-71.8786392211914,-130.31332397460938,0.0,237,188,229,232,0.0,0.0,0.0,0
1631795353.006189,60,1257,99785,353.66015625,155.0390625,-31.95703125,738.0,-1270.0,-12950.0,-17.28325653076172,181.97837829589844,-1079.632080078125,-84.37496185302734,-114.88056182861328,0.0,243,188,226,226,0.0,0.0,0.0,0
1631795353.131548,60,1272,99779,357.09375,144.703125,-42.609375,1296.0,-2784.0,-12509.0,-15.947663307189941,193.259033203125,-1087.43603515625,-80.8752212524414,-106.37245178222656,0.0,246,191,225,217,0.0,0.0,0.0,0
1631795353.225446,60,1288,99779,363.9609375,137.8125,-56.8125,2001.0,-3951.0,-11687.0,-8.007049560546875,215.60971069335938,-1062.6219482421875,9.130714416503906,-46.70890808105469,0.0,255,188,231,206,0.0,0.0,0.0,0
1631795353.33866,60,1299,99785,363.9609375,137.8125,-56.8125,1888.0,-3500.0,-10924.0,-30.96369171142578,191.06826782226562,-1027.6072998046875,75.258056640625,-45.75120544433594,0.0,255,182,238,202,0.0,0.0,0.0,0
1631795353.464827,59,1325,99779,360.52734375,113.6953125,-31.95703125,3474.0,-1055.0,-8626.0,-23.76620864868164,121.4930648803711,-1062.63134765625,85.36918640136719,-35.28721237182617,0.0,254,173,255,192,0.0,0.0,0.0,0
1631795353.732111,59,1345,99767,360.52734375,106.8046875,-53.26171875,4999.0,200.0,-6865.0,-5.614730358123779,162.93603515625,-1075.5958251953125,98.24311828613281,101.05923461914062,0.0,238,185,255,195,0.0,0.0,0.0,0
1631795353.733819,59,1366,99782,374.26171875,93.0234375,-10.65234375,3823.0,1962.0,-3895.0,9.685514450073242,202.29730224609375,-1045.528076171875,136.99008178710938,223.98841857910156,0.0,234,182,255,199,0.0,0.0,0.0,0
1631795353.933668,59,1396,99788,374.26171875,93.0234375,-3.55078125,2154.0,3362.0,275.0,-10.018852233886719,186.88087463378906,-1026.4832763671875,105.70133209228516,239.58792114257812,0.0,226,181,249,205,0.0,0.0,0.0,0
1631795353.975815,59,1414,99776,363.9609375,55.125,0.0,-80.0,2884.0,6223.0,30.73318862915039,228.51966857910156,-1046.674560546875,73.35746765136719,320.57403564453125,0.0,228,187,245,201,0.0,0.0,0.0,0
1631795354.147758,59,1426,99785,367.39453125,17.2265625,-24.85546875,-1843.0,1816.0,12285.0,-0.6656365394592285,170.3894500732422,-1051.1700439453125,93.66610717773438,342.8363037109375,0.0,238,186,245,197,0.0,0.0,0.0,0
1631795354.369914,59,1430,99782,357.09375,0.0,-28.40625,-2961.0,1655.0,18124.0,-9.997394561767578,149.94390869140625,-1052.5672607421875,110.75254821777344,299.9715881347656,0.0,235,186,245,206,0.0,0.0,0.0,0
1631795354.389868,59,1443,99788,343.359375,-27.5625,-28.40625,-3969.0,2420.0,24512.0,9.781774520874023,191.864013671875,-1045.310302734375,72.53929138183594,225.57855224609375,0.0,236,178,245,202,0.0,0.0,0.0,0
1631795354.460909,59,1447,99785,326.19140625,-65.4609375,-46.16015625,-4866.0,1448.0,31813.0,-18.956018447875977,144.38357543945312,-1021.1897583007812,72.11571502685547,158.63531494140625,0.0,255,174,238,203,0.0,0.0,0.0,0
1631795354.618262,59,1446,99788,298.72265625,-86.1328125,-31.95703125,-6626.0,-155.0,38407.0,-18.785186767578125,112.62581634521484,-1015.0155639648438,69.18295288085938,75.49427032470703,0.0,255,170,218,202,0.0,0.0,0.0,0
1631795354.745943,59,1448,99776,291.85546875,-106.8046875,-53.26171875,-6610.0,-761.0,47616.0,44.078582763671875,229.41610717773438,-1001.6095581054688,85.44092559814453,-106.5989761352539,0.0,255,179,221,196,0.0,0.0,0.0,0
1631795354.854453,59,1443,99776,264.38671875,-127.4765625,-39.05859375,-6023.0,-656.0,51214.0,-32.4991455078125,109.156982421875,-992.2808837890625,99.97565460205078,-113.40079498291016,0.0,255,172,221,204,0.0,0.0,0.0,0
1631795354.976021,59,1426,99779,206.015625,-151.59375,-49.7109375,-3066.0,709.0,65164.0,-24.04075050354004,131.14263916015625,-1083.65087890625,60.02080535888672,-337.1809997558594,0.0,255,189,227,231,0.0,0.0,0.0,0
1631795355.078854,59,1417,99782,151.078125,-179.15625,-35.5078125,-835.0,418.0,72342.0,8.735700607299805,128.55038452148438,-1066.1414794921875,12.219938278198242,-430.0877990722656,0.0,255,193,229,221,0.0,0.0,0.0,0
1631795355.18348,59,1388,99779,41.203125,-206.71875,-21.3046875,3237.0,-2481.0,95628.0,11.373749732971191,154.58251953125,-1038.2332763671875,-28.42892074584961,-308.0437316894531,0.0,245,189,218,213,0.0,0.0,0.0,0
1631795355.315613,59,1381,99788,27.46875,-199.828125,-21.3046875,2987.0,-2354.0,100632.0,-11.731416702270508,110.96046447753906,-1045.5970458984375,-35.51005554199219,-321.26904296875,0.0,245,186,219,217,0.0,0.0,0.0,0
1631795355.580102,59,1367,99779,-48.0703125,-165.375,-14.203125,1161.0,-1340.0,115620.0,39.140682220458984,172.3534393310547,-1037.8883056640625,-6.85771369934082,-256.5853271484375,0.0,245,174,211,222,0.0,0.0,0.0,0
1631795355.581333,59,1362,99779,-41.203125,-158.484375,-14.203125,661.0,-929.0,118498.0,-12.249764442443848,183.54859924316406,-1035.1444091796875,-11.569255828857422,-246.287353515625,0.0,245,172,214,226,0.0,0.0,0.0,0
1631795355.76184,59,1360,99773,-48.0703125,-158.484375,-28.40625,417.0,-696.0,119972.0,-18.253829956054688,140.6942596435547,-1031.44921875,-9.73498249053955,-244.59744262695312,0.0,245,168,212,228,0.0,0.0,0.0,0
1631795355.869916,59,1327,99782,-157.9453125,-34.453125,-35.5078125,127.0,1182.0,154559.0,-3.9440431594848633,152.2972869873047,-1056.3197021484375,-103.93305206298828,-259.59234619140625,0.0,250,178,221,232,0.0,0.0,0.0,0
1631795355.929197,59,1304,99785,-199.1484375,82.6875,-28.40625,-260.0,-1828.0,-179368.0,0.15822827816009521,176.7408905029297,-1017.0418701171875,-73.68030548095703,-121.47525787353516,0.0,255,185,207,216,0.0,0.0,0.0,0
1631795356.135754,59,1243,99776,-89.2734375,289.40625,-49.7109375,2456.0,177.0,-131486.0,-15.863720893859863,163.19776916503906,-1108.2191162109375,138.65904235839844,-56.47991943359375,0.0,254,198,235,230,0.0,0.0,0.0,0
1631795356.21526,59,1229,99785,-51.50390625,320.4140625,-53.26171875,3447.0,1576.0,-119860.0,-10.001788139343262,148.37503051757812,-1087.270751953125,201.7044219970703,1.4855399131774902,0.0,246,196,235,224,0.0,0.0,0.0,0
1631795356.35852,59,1218,99782,-6.8671875,330.75,-35.5078125,4332.0,3115.0,-110011.0,-16.899988174438477,167.9461669921875,-1108.8338623046875,245.45611572265625,47.41857147216797,0.0,239,188,244,216,0.0,0.0,0.0,0
1631795356.442709,58,1191,99788,116.7421875,365.203125,-78.1171875,3779.0,6400.0,-84004.0,-18.589696884155273,205.48538208007812,-1087.5921630859375,149.92062377929688,295.1504211425781,0.0,232,193,240,214,0.0,0.0,0.0,0
1631795356.588164,58,1168,99785,181.98046875,354.8671875,-53.26171875,112.0,5142.0,-69060.0,-8.10106372833252,215.8797607421875,-1142.4569091796875,154.9148712158203,401.5911865234375,0.0,241,190,232,224,0.0,0.0,0.0,0
1631795356.690924,58,1157,99782,264.38671875,313.5234375,-17.75390625,-4579.0,6277.0,-55135.0,-48.05657196044922,147.0444793701172,-1101.2337646484375,158.09422302246094,348.3205261230469,0.0,254,182,226,239,0.0,0.0,0.0,0
1631795356.796289,58,1153,99782,312.45703125,279.0703125,3.55078125,-6271.0,6440.0,-42523.0,-35.02601623535156,106.2752914428711,-1115.456298828125,121.7835464477539,240.23973083496094,0.0,255,178,223,239,0.0,0.0,0.0,0
1631795356.920325,58,1150,99779,360.52734375,230.8359375,-31.95703125,-5735.0,5728.0,-29787.0,-49.13991165161133,138.9619140625,-1060.794189453125,62.62881851196289,106.24091339111328,0.0,255,184,228,238,0.0,0.0,0.0,0
1631795357.043941,58,1150,99779,350.2265625,172.265625,0.0,-4849.0,4959.0,-22522.0,-15.570539474487305,174.51803588867188,-1069.5411376953125,24.978797912597656,47.51884078979492,0.0,255,189,230,235,0.0,0.0,0.0,0
1631795357.294689,58,1148,99793,360.52734375,86.1328125,-24.85546875,-2334.0,3606.0,-1579.0,-12.698873519897461,109.3337631225586,-1032.6492919921875,-32.55838394165039,-48.72538757324219,0.0,242,180,225,226,0.0,0.0,0.0,0
1631795357.295755,58,1146,99796,363.9609375,34.453125,-28.40625,-1069.0,3200.0,11903.0,-34.293128967285156,170.52481079101562,-1021.9385375976562,-118.94964599609375,-27.187633514404297,0.0,239,176,224,226,0.0,0.0,0.0,0
1631795357.556004,58,1133,99788,343.359375,-13.78125,-21.3046875,-1208.0,1900.0,23460.0,-4.759578704833984,152.5927734375,-1014.1377563476562,-150.2672882080078,-5.0021538734436035,0.0,239,172,218,224,0.0,0.0,0.0,0
1631795357.716057,58,1117,99782,302.15625,-55.125,-21.3046875,-2082.0,504.0,36128.0,-9.467637062072754,130.1715087890625,-1012.47998046875,-136.3385772705078,18.04644012451172,0.0,240,174,216,221,0.0,0.0,0.0,0
1631795357.726245,58,1099,99785,250.65234375,-106.8046875,-31.95703125,-2104.0,-799.0,47123.0,17.726245880126953,134.7769317626953,-1091.010498046875,-152.21450805664062,27.175582885742188,0.0,251,185,219,224,0.0,0.0,0.0,0
1631795357.95386,58,1076,99779,209.44921875,-141.2578125,-31.95703125,-3101.0,-1973.0,59822.0,-6.739593982696533,129.2404022216797,-1074.8138427734375,-104.58479309082031,16.606224060058594,0.0,255,185,217,227,0.0,0.0,0.0,0
1631795357.955382,58,1068,99793,185.4140625,-158.484375,-63.9140625,-3199.0,-1840.0,64335.0,11.508432388305664,192.50393676757812,-1113.0228271484375,-77.49005126953125,15.45559310913086,0.0,255,191,222,225,0.0,0.0,0.0,0
1631795358.046042,58,1051,99782,89.2734375,-165.375,-42.609375,-2052.0,-184.0,86026.0,5.104467391967773,205.50489807128906,-1101.23193359375,-28.300397872924805,-23.92941665649414,0.0,255,192,227,229,0.0,0.0,0.0,0
1631795358.202194,58,1043,99790,41.203125,-172.265625,-35.5078125,-589.0,163.0,98705.0,7.561164855957031,188.8391571044922,-1074.6951904296875,-17.453237533569336,-45.093299865722656,0.0,243,189,226,220,0.0,0.0,0.0,0
1631795358.31208,58,1041,99779,-17.16796875,-182.6015625,-46.16015625,928.0,732.0,113355.0,16.25292205810547,215.2903289794922,-1063.48583984375,3.522979974746704,-23.417701721191406,0.0,242,192,228,217,0.0,0.0,0.0,0
1631795358.432514,58,1034,99782,-92.70703125,-134.3671875,-46.16015625,1359.0,654.0,127341.0,18.725427627563477,150.88816833496094,-1074.0048828125,21.773033142089844,30.508176803588867,0.0,242,190,230,220,0.0,0.0,0.0,0
1631795358.535367,58,1028,99790,-137.34375,-75.796875,-21.3046875,228.0,1349.0,142948.0,-13.949108123779297,152.20216369628906,-1044.4779052734375,46.645606994628906,78.85093688964844,0.0,242,184,227,224,0.0,0.0,0.0,0
1631795358.640055,58,1029,99788,-178.546875,0.0,-35.5078125,-556.0,1899.0,156124.0,-26.795799255371094,145.3806610107422,-1074.85107421875,58.32997131347656,79.28678131103516,0.0,252,191,232,232,0.0,0.0,0.0,0
1631795358.765997,58,1032,99785,-157.9453125,55.125,-71.015625,-2385.0,2243.0,174365.0,21.189592361450195,165.6190948486328,-1083.137939453125,73.80130767822266,33.2634162902832,0.0,255,190,225,230,0.0,0.0,0.0,0
1631795359.033623,58,1041,99782,-161.37890625,161.9296875,-60.36328125,-2101.0,2952.0,-168827.0,1.531423568725586,137.058349609375,-1070.4718017578125,53.16040802001953,-21.1409854888916,0.0,255,189,231,236,0.0,0.0,0.0,0
1631795359.034695,58,1054,99782,-127.04296875,203.2734375,-46.16015625,-1103.0,2924.0,-151404.0,-13.573688507080078,89.80370330810547,-1078.9246826171875,41.023582458496094,-54.31312942504883,0.0,246,83,219,130,0.0,0.0,0.0,0
1631795359.227495,58,1045,99773,-120.17578125,237.7265625,-31.95703125,648.0,2926.0,-142156.0,-13.134300231933594,116.23783111572266,-810.824951171875,33.41562271118164,-48.49330520629883,0.0,210,146,206,176,0.0,0.0,0.0,0
1631795359.44078,58,1032,99785,-120.17578125,237.7265625,-31.95703125,2236.0,1886.0,-124058.0,6.790679931640625,170.4757537841797,-912.8756103515625,29.99568748474121,51.346832275390625,0.0,221,171,216,196,0.0,0.0,0.0,0
1631795359.452672,58,971,99776,-120.17578125,237.7265625,-31.95703125,698.0,2154.0,-110524.0,-1.3743336200714111,152.49722290039062,-1022.01123046875,39.025390625,122.5063705444336,0.0,232,174,224,206,0.0,0.0,0.0,0
1631795359.666758,58,913,99785,-120.17578125,237.7265625,-31.95703125,-620.0,2994.0,-97472.0,-15.325108528137207,139.9795379638672,-1051.39697265625,51.555381774902344,141.16859436035156,0.0,231,183,227,219,0.0,0.0,0.0,0
1631795359.695188,58,857,99785,-120.17578125,237.7265625,-31.95703125,-1034.0,2653.0,-84177.0,-10.578203201293945,181.13934326171875,-1091.8116455078125,39.71581268310547,141.4272918701172,0.0,242,188,230,220,0.0,0.0,0.0,0
1631795359.770207,58,798,99788,-120.17578125,237.7265625,-31.95703125,-2154.0,1812.0,-69647.0,-3.842574119567871,76.0875473022461,-1122.715087890625,24.671066284179688,141.49928283691406,0.0,255,189,229,223,0.0,0.0,0.0,0
1631795359.910147,58,763,99788,-120.17578125,237.7265625,-31.95703125,-3407.0,637.0,-59091.0,11.054964065551758,111.76043701171875,-1121.83251953125,34.04896926879883,155.64059448242188,0.0,255,195,221,221,0.0,0.0,0.0,0
1631795360.046777,58,710,99782,-120.17578125,237.7265625,-31.95703125,-4905.0,1286.0,-39457.0,-15.05501937866211,131.75238037109375,-1109.35986328125,71.23365020751953,46.372467041015625,0.0,255,185,216,225,0.0,0.0,0.0,0
1631795360.149538,58,672,99788,-120.17578125,237.7265625,-31.95703125,-4393.0,2967.0,-23096.0,18.507957458496094,151.30462646484375,-1075.4901123046875,52.455047607421875,-54.23444366455078,0.0,246,182,222,225,0.0,0.0,0.0,0
1631795360.277509,58,648,99785,-120.17578125,237.7265625,-31.95703125,-2039.0,3948.0,-9362.0,-25.087608337402344,142.93743896484375,-1080.83349609375,-4.948580741882324,-106.40274047851562,0.0,242,181,227,227,0.0,0.0,0.0,0
1631795360.455483,57,615,99785,-120.17578125,237.7265625,-31.95703125,-756.0,3045.0,9191.0,-6.145003318786621,170.9167022705078,-1035.7955322265625,-121.4132308959961,-67.66620635986328,0.0,242,186,231,226,0.0,0.0,0.0,0
1631795360.507414,57,573,99788,-120.17578125,237.7265625,-31.95703125,-988.0,1942.0,20535.0,-2.9189305305480957,187.39259338378906,-1026.6724853515625,-164.1450653076172,-28.171173095703125,0.0,242,186,229,224,0.0,0.0,0.0,0
1631795360.618861,57,569,99793,-120.17578125,237.7265625,-31.95703125,-1259.0,1309.0,28642.0,-14.499146461486816,151.16946411132812,-1009.5862426757812,-179.8275146484375,-5.704791069030762,0.0,242,184,230,227,0.0,0.0,0.0,0
1631795360.859096,57,536,99799,-120.17578125,237.7265625,-31.95703125,-3662.0,833.0,57648.0,-38.53654479980469,118.27359771728516,-1076.5682373046875,-171.35589599609375,64.53202056884766,0.0,255,181,228,241,0.0,0.0,0.0,0
1631795360.876329,57,526,99793,-120.17578125,237.7265625,-31.95703125,-4547.0,556.0,66595.0,36.99686050415039,177.49990844726562,-1070.6441650390625,-169.2075958251953,69.37065124511719,0.0,255,187,227,234,0.0,0.0,0.0,0
1631795361.062464,57,512,99790,-120.17578125,237.7265625,-31.95703125,-5057.0,290.0,79390.0,-46.945030212402344,162.1942901611328,-1071.3284912109375,-179.02349853515625,31.32485580444336,0.0,255,187,232,239,0.0,0.0,0.0,0
1631795361.111613,57,473,99793,-120.17578125,237.7265625,-31.95703125,-4022.0,-598.0,109732.0,-25.83420181274414,200.98562622070312,-1096.046142578125,-145.86473083496094,-3.5159366130828857,0.0,252,192,231,230,0.0,0.0,0.0,0
1631795361.302176,57,465,99790,-120.17578125,237.7265625,-31.95703125,-4009.0,-626.0,116144.0,12.492744445800781,202.38351440429688,-1103.0347900390625,-136.55287170410156,-6.344213485717773,0.0,248,187,228,228,0.0,0.0,0.0,0
1631795361.403108,57,427,99788,-120.17578125,237.7265625,-31.95703125,-2499.0,466.0,148673.0,-24.291873931884766,160.58460998535156,-1071.452392578125,-102.78594970703125,-12.00430679321289,0.0,242,181,232,232,0.0,0.0,0.0,0
1631795361.523954,57,424,99788,-120.17578125,237.7265625,-31.95703125,-2356.0,404.0,153675.0,10.534760475158691,182.73330688476562,-1092.208740234375,-93.26676177978516,-5.227927207946777,0.0,242,182,228,227,0.0,0.0,0.0,0
1631795361.660394,55,397,99785,-120.17578125,237.7265625,-31.95703125,-1252.0,-1020.0,-170473.0,-13.29667854309082,116.16136169433594,-1057.00830078125,-33.33987045288086,15.302160263061523,0.0,243,184,224,222,0.0,0.0,0.0,0
1631795361.765327,55,395,99788,-120.17578125,237.7265625,-31.95703125,-1225.0,-1307.0,-165436.0,32.58549499511719,236.37115478515625,-1045.978271484375,-21.294883728027344,7.454909801483154,0.0,246,199,234,220,0.0,0.0,0.0,0
1631795361.890984,55,155,99779,-120.17578125,237.7265625,-31.95703125,-3092.0,-2374.0,-136456.0,4.777393341064453,160.84127807617188,-1039.163330078125,20.479219436645508,87.23541259765625,0.0,255,191,220,223,0.0,0.0,0.0,0
1631795361.984521,55,252,99790,-120.17578125,237.7265625,-31.95703125,-4025.0,-443.0,-106903.0,-23.03114128112793,124.65876770019531,-1061.781494140625,70.84832000732422,-66.22553253173828,0.0,255,187,228,235,0.0,0.0,0.0,0
1631795362.097921,55,324,99788,-120.17578125,237.7265625,-31.95703125,-844.0,109.0,-80352.0,18.582849502563477,166.66993713378906,-1113.3052978515625,-6.729016304016113,-217.0061492919922,0.0,252,191,229,228,0.0,0.0,0.0,0
1631795362.22538,55,369,99782,-120.17578125,237.7265625,-31.95703125,3081.0,-1146.0,-52637.0,27.735849380493164,179.1166534423828,-1101.917236328125,-101.72579956054688,-212.15931701660156,0.0,242,198,243,221,0.0,0.0,0.0,0
1631795362.491543,55,395,99788,-120.17578125,237.7265625,-31.95703125,4252.0,-1774.0,-32297.0,32.538753509521484,213.70431518554688,-1068.2630615234375,-132.5974884033203,-99.40873718261719,0.0,242,184,253,204,0.0,0.0,0.0,0
1631795362.492768,53,407,99790,-120.17578125,237.7265625,-31.95703125,3861.0,-1115.0,-10911.0,22.397289276123047,193.66104125976562,-1038.7703857421875,-78.17024993896484,62.78761291503906,0.0,239,178,255,201,0.0,0.0,0.0,0
1631795362.694269,53,410,99790,-120.17578125,237.7265625,-31.95703125,1759.0,-578.0,6840.0,-14.333280563354492,169.0884246826172,-1065.9842529296875,-5.641933917999268,178.00975036621094,0.0,247,199,248,231,0.0,0.0,0.0,0
1631795362.733595,53,420,99785,-120.17578125,237.7265625,-31.95703125,-2654.0,292.0,26124.0,-27.19780731201172,119.21725463867188,-1079.4166259765625,56.89059829711914,199.85574340820312,0.0,255,187,228,236,0.0,0.0,0.0,0
1631795362.906667,53,424,99799,-120.17578125,237.7265625,-31.95703125,-3970.0,436.0,32682.0,-9.820467948913574,193.33029174804688,-1071.3192138671875,67.70753479003906,174.28675842285156,0.0,255,192,234,236,0.0,0.0,0.0,0
1631795363.125505,53,444,75182,-120.17578125,237.7265625,-31.95703125,-3775.0,3027.0,60227.0,-14.72225570678711,158.87347412109375,-1119.47998046875,85.86860656738281,-18.289749145507812,0.0,255,196,246,245,0.0,0.0,0.0,0
1631795363.156439,53,469,99799,-120.17578125,237.7265625,-31.95703125,-1839.0,3068.0,76184.0,2.8055715560913086,225.09645080566406,-1107.9349365234375,10.473716735839844,-91.80345153808594,0.0,253,200,250,242,0.0,0.0,0.0,0
1631795363.234019,53,491,99790,-120.17578125,237.7265625,-31.95703125,-1185.0,1018.0,93216.0,2.3695626258850098,106.9784164428711,-1084.292236328125,-43.021385192871094,-125.27849578857422,0.0,242,176,218,223,0.0,0.0,0.0,0
1631795363.367923,53,501,99788,-120.17578125,237.7265625,-31.95703125,-1138.0,-37.0,103749.0,-13.195663452148438,178.2831573486328,-1058.06591796875,-39.12007141113281,-92.1071548461914,0.0,242,183,222,220,0.0,0.0,0.0,0
1631795363.504673,53,529,99785,-120.17578125,237.7265625,-31.95703125,-1005.0,-895.0,130789.0,-4.645312309265137,143.49407958984375,-1049.167724609375,2.0067505836486816,-82.25476837158203,0.0,242,182,224,223,0.0,0.0,0.0,0
1631795363.598778,53,551,99788,-120.17578125,237.7265625,-31.95703125,-539.0,-522.0,150322.0,-11.815969467163086,174.37828063964844,-1049.6539306640625,11.816728591918945,-71.84587860107422,0.0,246,189,235,231,0.0,0.0,0.0,0
1631795363.735514,53,330,99785,-120.17578125,237.7265625,-31.95703125,-1876.0,-1020.0,166787.0,20.12159538269043,144.9415283203125,-1061.25341796875,16.12711524963379,7.88356351852417,0.0,255,184,219,229,0.0,0.0,0.0,0
1631795363.837701,53,475,99782,-120.17578125,237.7265625,-31.95703125,-2844.0,-1612.0,-177107.0,26.07094383239746,176.1258087158203,-1010.7666015625,42.319915771484375,-61.69511413574219,0.0,255,191,219,222,0.0,0.0,0.0,0
1631795363.944026,53,560,99793,-120.17578125,237.7265625,-31.95703125,-1722.0,-1313.0,-161881.0,11.97603702545166,212.5476531982422,-1031.1082763671875,62.36731719970703,-155.81793212890625,0.0,255,193,225,226,0.0,0.0,0.0,0
1631795364.074527,53,626,99788,-120.17578125,237.7265625,-31.95703125,-6.0,-1182.0,-147925.0,17.45244026184082,155.1931915283203,-1043.427001953125,50.48298645019531,-236.0048828125,0.0,252,190,220,221,0.0,0.0,0.0,0
1631795364.338986,53,677,99782,-120.17578125,237.7265625,-31.95703125,2297.0,-429.0,-133966.0,9.15553092956543,186.58738708496094,-1048.1881103515625,55.63178634643555,-249.77210998535156,0.0,245,192,230,225,0.0,0.0,0.0,0
1631795364.339878,53,705,99788,-120.17578125,237.7265625,-31.95703125,3989.0,864.0,-120889.0,-15.045792579650879,138.0541229248047,-1070.43798828125,17.16294288635254,-194.30868530273438,0.0,237,188,235,230,0.0,0.0,0.0,0
1631795364.520053,52,722,99790,-120.17578125,237.7265625,-31.95703125,5047.0,1074.0,-107226.0,11.226913452148438,215.30294799804688,-1065.801513671875,2.557612895965576,-87.63955688476562,0.0,234,196,245,222,0.0,0.0,0.0,0
1631795364.565191,52,686,99790,-120.17578125,237.7265625,-31.95703125,5504.0,1076.0,-93289.0,-24.387563705444336,126.838623046875,-1079.095458984375,-8.452683448791504,23.585952758789062,0.0,238,196,254,227,0.0,0.0,0.0,0
1631795364.760252,52,703,99782,-120.17578125,237.7265625,-31.95703125,5087.0,1597.0,-80123.0,-22.563005447387695,110.80996704101562,-1071.3214111328125,12.103404998779297,160.9703369140625,0.0,233,201,255,226,0.0,0.0,0.0,0
1631795364.828923,52,712,99790,-120.17578125,237.7265625,-31.95703125,2570.0,2521.0,-65609.0,0.6904792785644531,142.6929473876953,-1082.1549072265625,43.10736083984375,276.5444641113281,0.0,240,197,254,231,0.0,0.0,0.0,0
1631795364.98219,52,722,99788,-120.17578125,237.7265625,-31.95703125,-413.0,2796.0,-51093.0,-35.4410400390625,122.53218841552734,-1046.4405517578125,93.8048324584961,315.49749755859375,0.0,243,194,242,226,0.0,0.0,0.0,0
1631795365.118799,52,739,99782,-120.17578125,237.7265625,-31.95703125,-3753.0,2389.0,-33623.0,-0.8372530937194824,149.9207763671875,-980.3615112304688,164.09742736816406,263.09454345703125,0.0,255,165,233,195,0.0,0.0,0.0,0
1631795365.220131,52,735,99788,-120.17578125,237.7265625,-31.95703125,-5441.0,2922.0,-22226.0,12.063116073608398,152.8511199951172,-994.0647583007812,183.53916931152344,188.90879821777344,0.0,255,158,232,202,0.0,0.0,0.0,0
1631795365.349215,52,728,99785,-120.17578125,237.7265625,-31.95703125,-5249.0,4134.0,-12664.0,-5.251909255981445,147.4770965576172,-1011.97705078125,146.79229736328125,76.28019714355469,0.0,253,166,239,211,0.0,0.0,0.0,0
1631795365.443217,50,723,99776,-120.17578125,237.7265625,-31.95703125,-2184.0,4119.0,-1362.0,3.7259185314178467,190.02333068847656,-1101.371826171875,35.52458953857422,-29.691865921020508,0.0,245,202,253,235,0.0,0.0,0.0,0
1631795365.556477,50,721,99788,-120.17578125,237.7265625,-31.95703125,745.0,4386.0,9689.0,-8.096700668334961,231.86119079589844,-1090.385498046875,-34.20946502685547,-34.708011627197266,0.0,225,196,255,224,0.0,0.0,0.0,0
1631795365.680334,50,720,99785,-120.17578125,237.7265625,-31.95703125,1774.0,3107.0,23174.0,12.57895565032959,182.59161376953125,-1096.1583251953125,-106.216552734375,27.610031127929688,0.0,238,201,255,231,0.0,0.0,0.0,0
1631795365.796254,50,735,99790,-120.17578125,237.7265625,-31.95703125,151.0,1236.0,38050.0,-23.559446334838867,148.7880096435547,-1085.7315673828125,-128.4390106201172,105.79032897949219,0.0,247,188,254,226,0.0,0.0,0.0,0
1631795365.921473,50,751,99796,-120.17578125,237.7265625,-31.95703125,-3237.0,-554.0,53259.0,-3.3075196743011475,155.27699279785156,-1047.1910400390625,-87.00728607177734,145.9373016357422,0.0,255,169,230,202,0.0,0.0,0.0,0
1631795366.153518,50,749,99785,-120.17578125,237.7265625,-31.95703125,-5938.0,-1811.0,66483.0,-12.28375244140625,187.8463897705078,-960.46826171875,-26.853816986083984,102.35934448242188,0.0,255,98,230,126,0.0,0.0,0.0,0
1631795366.18205,50,715,99796,-120.17578125,237.7265625,-31.95703125,-5312.0,-1865.0,75577.0,-2.430046796798706,228.64683532714844,-906.3333129882812,2.877366065979004,107.89291381835938,0.0,253,143,235,160,0.0,0.0,0.0,0
1631795366.374393,50,698,99785,-120.17578125,237.7265625,-31.95703125,-5283.0,-1795.0,77655.0,24.469514846801758,220.25648498535156,-939.4777221679688,26.106056213378906,95.48345947265625,0.0,253,152,231,174,0.0,0.0,0.0,0
1631795366.415815,49,617,99790,-120.17578125,237.7265625,-31.95703125,-5087.0,94.0,87397.0,-28.891286849975586,184.4185791015625,-1022.26904296875,27.337675094604492,-44.126625061035156,0.0,253,167,233,206,0.0,0.0,0.0,0
1631795366.595949,49,580,99785,-120.17578125,237.7265625,-31.95703125,-3440.0,724.0,92621.0,-6.398311138153076,147.23104858398438,-1043.2452392578125,14.651984214782715,-129.27996826171875,0.0,253,167,240,207,0.0,0.0,0.0,0
1631795366.698189,49,548,99785,-120.17578125,237.7265625,-31.95703125,-2046.0,479.0,97606.0,2.9103212356567383,156.26736450195312,-1082.343994140625,-19.208255767822266,-142.15985107421875,0.0,249,179,226,219,0.0,0.0,0.0,0
1631795366.835334,49,544,99785,-120.17578125,237.7265625,-31.95703125,-1947.0,384.0,98219.0,35.64338302612305,229.89170837402344,-1098.3597412109375,-22.54738998413086,-144.38327026367188,0.0,249,184,232,210,0.0,0.0,0.0,0
1631795366.962886,49,443,99790,-120.17578125,237.7265625,-31.95703125,-1426.0,-1273.0,120941.0,12.480022430419922,165.6846466064453,-1096.5977783203125,-45.280540466308594,-139.4656982421875,0.0,249,187,222,223,0.0,0.0,0.0,0
1631795367.063032,49,401,99796,-120.17578125,237.7265625,-31.95703125,-1116.0,-831.0,135828.0,10.115486145019531,152.71279907226562,-1100.455322265625,-72.40752410888672,-142.35302734375,0.0,249,185,224,226,0.0,0.0,0.0,0
1631795367.193039,49,367,99788,-120.17578125,237.7265625,-31.95703125,-732.0,-210.0,153591.0,6.846502304077148,170.3112030029297,-1093.5633544921875,-94.6844482421875,-103.6540756225586,0.0,237,180,228,224,0.0,0.0,0.0,0
1631795367.295885,49,343,99782,-120.17578125,237.7265625,-31.95703125,108.0,360.0,169593.0,-6.573578834533691,199.4849090576172,-1071.2774658203125,-129.3112335205078,-50.75138473510742,0.0,235,186,234,222,0.0,0.0,0.0,0
1631795367.400566,49,337,99796,-120.17578125,237.7265625,-31.95703125,201.0,132.0,173820.0,24.64266586303711,153.40341186523438,-1070.5087890625,-130.11192321777344,-36.06698989868164,0.0,235,185,229,218,0.0,0.0,0.0,0
1631795367.524991,48,293,99796,-120.17578125,237.7265625,-31.95703125,-1540.0,-2683.0,-153037.0,25.141143798828125,179.37318420410156,-1034.468017578125,-43.76450729370117,88.45587158203125,0.0,235,181,210,203,0.0,0.0,0.0,0
1631795367.796613,48,268,99790,-120.17578125,237.7265625,-31.95703125,-3541.0,-1398.0,-134447.0,-6.4268364906311035,135.1378631591797,-1020.5992431640625,51.872188568115234,59.42057418823242,0.0,246,178,211,218,0.0,0.0,0.0,0
1631795367.796833,48,246,99790,-120.17578125,237.7265625,-31.95703125,-3672.0,586.0,-114557.0,1.220380425453186,172.87449645996094,-1102.0738525390625,87.00985717773438,-51.44025421142578,0.0,255,189,227,232,0.0,0.0,0.0,0
1631795367.897779,48,239,99790,-120.17578125,237.7265625,-31.95703125,-2118.0,1550.0,-95267.0,27.395809173583984,135.17803955078125,-1133.26708984375,26.996023178100586,-160.82528686523438,0.0,255,188,229,235,0.0,0.0,0.0,0
1631795368.131589,48,245,99790,-120.17578125,237.7265625,-31.95703125,40.0,-176.0,-74293.0,1.7194733619689941,135.87353515625,-1109.350830078125,-87.37335968017578,-162.5692596435547,0.0,255,190,224,228,0.0,0.0,0.0,0
1631795368.319579,48,254,99793,-120.17578125,237.7265625,-31.95703125,-617.0,-1852.0,-56871.0,12.74114990234375,218.76182556152344,-1056.549560546875,-96.95909881591797,-134.98643493652344,0.0,246,190,224,219,0.0,0.0,0.0,0
1631795368.364688,48,255,99793,-120.17578125,237.7265625,-31.95703125,-178.0,-1523.0,-44758.0,-15.564584732055664,133.80223083496094,-1045.42333984375,-86.19697570800781,-129.52886962890625,0.0,242,182,224,223,0.0,0.0,0.0,0
1631795368.411076,48,256,99793,-120.17578125,237.7265625,-31.95703125,877.0,-578.0,-21284.0,3.604567766189575,214.00665283203125,-1077.575927734375,-87.96016693115234,-96.8766860961914,0.0,242,190,236,227,0.0,0.0,0.0,0
1631795368.575261,48,256,99793,-120.17578125,237.7265625,-31.95703125,905.0,-426.0,-17183.0,-13.950865745544434,148.9036865234375,-1096.452880859375,-96.69627380371094,-88.33297729492188,0.0,242,179,229,230,0.0,0.0,0.0,0
1631795368.654271,48,257,99799,-120.17578125,237.7265625,-31.95703125,-256.0,-661.0,4172.0,-25.605077743530273,174.79078674316406,-1048.594970703125,-111.42948913574219,-9.012197494506836,0.0,244,180,226,228,0.0,0.0,0.0,0
1631795368.805369,48,257,99799,-120.17578125,237.7265625,-31.95703125,-616.0,-1037.0,11352.0,-6.379384994506836,180.96673583984375,-1084.0689697265625,-106.63329315185547,9.08350658416748,0.0,250,187,228,230,0.0,0.0,0.0,0
1631795368.898978,48,265,99793,-120.17578125,237.7265625,-31.95703125,-2258.0,-1898.0,42149.0,-46.94755935668945,112.34405517578125,-1070.1513671875,-19.67142105102539,-3.589205265045166,0.0,255,186,226,234,0.0,0.0,0.0,0
1631795369.036135,48,265,99793,-120.17578125,237.7265625,-31.95703125,-2201.0,-1894.0,42821.0,-3.90122652053833,211.08340454101562,-1073.6488037109375,-17.020587921142578,-2.871703624725342,0.0,255,193,229,230,0.0,0.0,0.0,0
1631795369.12951,48,278,99796,-120.17578125,237.7265625,-31.95703125,-1083.0,-1051.0,63379.0,6.024891376495361,196.15036010742188,-1107.109130859375,8.030674934387207,-55.75360870361328,0.0,255,193,230,232,0.0,0.0,0.0,0
1631795369.25119,48,281,99776,-120.17578125,237.7265625,-31.95703125,-693.0,-939.0,67425.0,-22.540325164794922,168.84706115722656,-1085.632080078125,10.453755378723145,-56.22921371459961,0.0,255,191,233,235,0.0,0.0,0.0,0
1631795369.376676,48,282,99790,-120.17578125,237.7265625,-31.95703125,-488.0,-895.0,68786.0,11.306321144104004,198.6907501220703,-1116.580078125,12.212158203125,-55.712913513183594,0.0,254,196,237,234,0.0,0.0,0.0,0
1631795369.620088,48,288,99788,-120.17578125,237.7265625,-31.95703125,364.0,-315.0,77036.0,-36.639183044433594,218.38255310058594,-1100.294677734375,8.7037992477417,-44.53091812133789,0.0,248,193,244,237,0.0,0.0,0.0,0
1631795369.633655,48,303,99796,-120.17578125,237.7265625,-31.95703125,1748.0,252.0,90708.0,-11.718721389770508,160.88145446777344,-1113.1961669921875,3.280292510986328,-34.9073600769043,0.0,242,185,235,230,0.0,0.0,0.0,0
1631795369.830211,48,314,99788,-120.17578125,237.7265625,-31.95703125,2637.0,96.0,101321.0,-13.761082649230957,219.46263122558594,-1092.9918212890625,-6.798910617828369,17.758167266845703,0.0,242,189,240,232,0.0,0.0,0.0,0
1631795369.871028,46,354,99782,-120.17578125,237.7265625,-31.95703125,-2659.0,162.0,149003.0,2.2489242553710938,210.5613555908203,-951.38134765625,217.86819458007812,145.59202575683594,0.0,255,146,225,182,0.0,0.0,0.0,0
1631795370.051843,46,352,99788,-120.17578125,237.7265625,-31.95703125,-3225.0,697.0,152870.0,23.322647094726562,174.57057189941406,-947.8745727539062,224.10269165039062,115.50425720214844,0.0,255,146,224,180,0.0,0.0,0.0,0
1631795370.138511,46,970,99799,-120.17578125,237.7265625,-31.95703125,-1828.0,2575.0,167717.0,-1.8231043815612793,209.11231994628906,-807.1150512695312,131.25364685058594,-67.0511245727539,0.0,95,182,78,222,0.0,0.0,0.0,0
1631795370.289712,46,534,99799,-120.17578125,237.7265625,-31.95703125,3960.0,4527.0,-174075.0,11.440749168395996,209.76483154296875,-1164.3050537109375,188.4866485595703,-328.419677734375,0.0,254,206,242,255,0.0,0.0,0.0,0
1631795370.37189,46,373,99799,-120.17578125,237.7265625,-31.95703125,5175.0,3433.0,-160233.0,19.392070770263672,164.07330322265625,-1172.16015625,-13.53449821472168,-6.329845428466797,0.0,248,206,250,231,0.0,0.0,0.0,0
1631795370.52211,45,282,99790,-120.17578125,237.7265625,-31.95703125,1959.0,738.0,-147820.0,34.55509567260742,181.8039093017578,-1102.580322265625,-61.07715606689453,202.45767211914062,0.0,238,185,218,211,0.0,0.0,0.0,0
1631795370.649847,45,228,99796,-120.17578125,237.7265625,-31.95703125,-1339.0,1251.0,-136556.0,25.00969696044922,100.50458526611328,-1081.319091796875,-5.092562675476074,235.43209838867188,0.0,235,193,225,241,0.0,0.0,0.0,0
1631795370.74318,45,183,99796,-120.17578125,237.7265625,-31.95703125,-1818.0,4020.0,-121421.0,-9.348716735839844,138.3353271484375,-1090.811767578125,-13.894414901733398,180.5547637939453,0.0,235,191,230,241,0.0,0.0,0.0,0
1631795370.857671,45,164,99793,-120.17578125,237.7265625,-31.95703125,-1696.0,3081.0,-109450.0,5.351646900177002,136.69276428222656,-1115.7855224609375,-72.08989715576172,157.7222137451172,0.0,236,188,238,226,0.0,0.0,0.0,0
1631795370.983213,45,185,99796,-120.17578125,237.7265625,-31.95703125,-2308.0,935.0,-94565.0,2.4116616249084473,161.2872314453125,-1121.5806884765625,-117.6128921508789,153.61083984375,0.0,251,193,230,227,0.0,0.0,0.0,0
1631795371.250786,45,214,99802,-120.17578125,237.7265625,-31.95703125,-4762.0,-1486.0,-81206.0,13.598663330078125,123.03106689453125,-1090.049560546875,-124.01632690429688,116.86906433105469,0.0,252,188,216,220,0.0,0.0,0.0,0
1631795371.25195,45,227,99796,-120.17578125,237.7265625,-31.95703125,-4297.0,-1395.0,-67569.0,-37.83808898925781,145.54490661621094,-1070.33056640625,-87.84889221191406,23.758556365966797,0.0,242,184,223,221,0.0,0.0,0.0,0
1631795371.459312,45,238,99793,-120.17578125,237.7265625,-31.95703125,-2924.0,-470.0,-54519.0,26.503400802612305,139.2742156982422,-1054.6258544921875,-87.98554229736328,-57.80740737915039,0.0,242,181,227,227,0.0,0.0,0.0,0
1631795371.489758,45,252,99796,-120.17578125,237.7265625,-31.95703125,-746.0,-297.0,-40668.0,-13.478541374206543,181.7109832763672,-1080.7191162109375,-111.62810516357422,-86.56275177001953,0.0,242,188,234,226,0.0,0.0,0.0,0
1631795371.591012,45,267,99802,-120.17578125,237.7265625,-31.95703125,-122.0,-624.0,-27185.0,13.489595413208008,194.32510375976562,-1036.769287109375,-134.8052978515625,-61.69729995727539,0.0,244,197,242,227,0.0,0.0,0.0,0
1631795371.81478,45,288,99793,-120.17578125,237.7265625,-31.95703125,449.0,-1030.0,-12965.0,-5.227694988250732,168.0370330810547,-1109.9521484375,-106.06227111816406,-15.598292350769043,0.0,255,208,255,241,0.0,0.0,0.0,0
1631795372.005668,45,297,99799,-120.17578125,237.7265625,-31.95703125,509.0,-1031.0,-8534.0,27.90394401550293,204.23033142089844,-1129.779296875,-105.7468032836914,4.4270734786987305,0.0,252,207,255,238,0.0,0.0,0.0,0
1631795372.016402,45,333,99793,-120.17578125,237.7265625,-31.95703125,239.0,239.0,9691.0,7.935786247253418,160.64793395996094,-1094.74853515625,-96.9390869140625,94.72003936767578,0.0,236,192,249,232,0.0,0.0,0.0,0
1631795372.101504,45,374,99799,-120.17578125,237.7265625,-31.95703125,-1672.0,-222.0,30042.0,-27.0793514251709,156.32464599609375,-1033.8778076171875,-65.97281646728516,142.24710083007812,0.0,244,172,235,212,0.0,0.0,0.0,0
1631795372.261522,45,388,99790,-120.17578125,237.7265625,-31.95703125,-2927.0,-817.0,37225.0,-12.663492202758789,155.7627716064453,-977.5986938476562,-26.742555618286133,134.04640197753906,0.0,255,156,234,192,0.0,0.0,0.0,0
1631795372.351968,45,400,99793,-120.17578125,237.7265625,-31.95703125,-4216.0,-1900.0,45921.0,5.747331619262695,166.41494750976562,-923.3323974609375,10.010833740234375,97.458251953125,0.0,255,155,227,186,0.0,0.0,0.0,0
1631795372.491874,45,407,99788,-120.17578125,237.7265625,-31.95703125,-3296.0,-2137.0,62518.0,15.887187004089355,225.56890869140625,-994.303466796875,105.14338684082031,-7.879861831665039,0.0,255,179,232,201,0.0,0.0,0.0,0
1631795372.586416,45,407,99790,-120.17578125,237.7265625,-31.95703125,-3115.0,-1918.0,65367.0,-13.5011625289917,133.86972045898438,-1018.9986572265625,124.38873291015625,-28.182598114013672,0.0,255,180,227,213,0.0,0.0,0.0,0
1631795372.699685,45,408,99793,-120.17578125,237.7265625,-31.95703125,-1871.0,-210.0,78207.0,-12.479357719421387,159.20953369140625,-1089.6162109375,142.3070068359375,-110.86430358886719,0.0,249,188,224,224,0.0,0.0,0.0,0
1631795372.825808,45,411,99790,-120.17578125,237.7265625,-31.95703125,432.0,1322.0,88704.0,-12.490169525146484,132.59255981445312,-1079.739501953125,115.34309387207031,-160.86767578125,0.0,239,186,232,224,0.0,0.0,0.0,0
1631795373.067141,45,416,99785,-120.17578125,237.7265625,-31.95703125,2194.0,1351.0,99559.0,18.69701385498047,228.13397216796875,-1093.3607177734375,46.29011917114258,-123.70865631103516,0.0,239,195,232,214,0.0,0.0,0.0,0
1631795373.167291,45,419,99788,-120.17578125,237.7265625,-31.95703125,1613.0,509.0,110555.0,7.3387131690979,199.19361877441406,-1047.833740234375,32.77021026611328,-87.84640502929688,0.0,239,187,224,215,0.0,0.0,0.0,0
1631795373.203306,45,420,99788,-120.17578125,237.7265625,-31.95703125,600.0,422.0,118221.0,0.8427122831344604,142.0753631591797,-1038.4708251953125,27.799070358276367,-64.08912658691406,0.0,240,179,221,221,0.0,0.0,0.0,0
1631795373.461038,45,424,99796,-120.17578125,237.7265625,-31.95703125,-1037.0,450.0,134212.0,-9.993023872375488,146.81138610839844,-1063.4892578125,8.98792839050293,-68.53009033203125,0.0,255,189,226,232,0.0,0.0,0.0,0
1631795373.620633,45,429,99790,-120.17578125,237.7265625,-31.95703125,-1517.0,-400.0,151381.0,-25.544301986694336,140.32821655273438,-1071.963623046875,-15.001691818237305,-122.61296081542969,0.0,255,188,223,229,0.0,0.0,0.0,0
1631795373.631061,45,436,99793,-120.17578125,237.7265625,-31.95703125,-1138.0,-668.0,160365.0,17.110687255859375,185.73086547851562,-1070.4581298828125,-20.930747985839844,-138.622314453125,0.0,255,191,225,228,0.0,0.0,0.0,0
1631795373.708041,44,466,99796,-120.17578125,237.7265625,-31.95703125,-221.0,-722.0,-167583.0,4.04987096786499,160.4792938232422,-1062.3209228515625,-26.000782012939453,-142.4603729248047,0.0,244,181,221,223,0.0,0.0,0.0,0
1631795373.877803,44,477,99793,-120.17578125,237.7265625,-31.95703125,1124.0,-336.0,-150218.0,21.901901245117188,166.72686767578125,-1053.7728271484375,-49.84642028808594,-146.44253540039062,0.0,242,185,225,221,0.0,0.0,0.0,0
1631795373.97592,44,1003,99793,-120.17578125,237.7265625,-31.95703125,2330.0,-515.0,-131882.0,-7.432524681091309,187.3026885986328,-611.624755859375,-108.83531951904297,-259.7281494140625,0.0,221,70,206,113,0.0,0.0,0.0,0
1631795374.107936,44,754,99788,-120.17578125,237.7265625,-31.95703125,3887.0,-1853.0,-117573.0,-10.04716682434082,165.6949462890625,-968.1202392578125,-118.36470031738281,-110.34066009521484,0.0,242,190,226,217,0.0,0.0,0.0,0
1631795374.20232,44,565,99796,-120.17578125,237.7265625,-31.95703125,2182.0,-2331.0,-104055.0,-2.3143258094787598,187.86404418945312,-1102.3028564453125,-38.76103210449219,90.42771911621094,0.0,251,195,231,226,0.0,0.0,0.0,0
1631795374.322955,44,510,99785,-120.17578125,237.7265625,-31.95703125,880.0,-2153.0,-98403.0,-9.940730094909668,131.96336364746094,-1112.9705810546875,5.4730224609375,135.04312133789062,0.0,255,192,227,229,0.0,0.0,0.0,0
1631795374.518704,44,326,99790,-120.17578125,237.7265625,-31.95703125,-2735.0,1788.0,-70419.0,-42.31824493408203,148.56842041015625,-1065.978515625,141.5048828125,93.60808563232422,0.0,255,186,233,242,0.0,0.0,0.0,0
1631795374.569048,44,295,99796,-120.17578125,237.7265625,-31.95703125,-1790.0,3436.0,-54910.0,-28.20177459716797,129.2688446044922,-1110.125244140625,86.16780090332031,6.201291561126709,0.0,255,189,235,240,0.0,0.0,0.0,0
1631795374.816159,44,292,99788,-120.17578125,237.7265625,-31.95703125,566.0,2975.0,-38518.0,-36.38185501098633,113.670166015625,-1100.0224609375,-6.7623491287231445,-26.5335693359375,0.0,245,187,240,237,0.0,0.0,0.0,0
1631795375.006101,44,300,99788,-120.17578125,237.7265625,-31.95703125,2059.0,2617.0,-28166.0,-37.09910202026367,90.53771209716797,-1086.3865966796875,-40.180091857910156,-1.5614701509475708,0.0,245,188,248,234,0.0,0.0,0.0,0
1631795375.023835,44,317,99793,-120.17578125,237.7265625,-31.95703125,3492.0,1655.0,-9597.0,-53.44174575805664,134.1226348876953,-1069.7772216796875,-84.52286529541016,111.2899398803711,0.0,240,189,247,230,0.0,0.0,0.0,0
1631795375.067052,44,319,99779,-120.17578125,237.7265625,-31.95703125,435.0,-34.0,6588.0,-6.277401447296143,155.50315856933594,-1104.16748046875,-63.59064865112305,231.79371643066406,0.0,245,182,231,219,0.0,0.0,0.0,0
1631795375.308996,44,1036,99782,-120.17578125,237.7265625,-31.95703125,-2658.0,-455.0,19570.0,-37.22461700439453,128.01983642578125,-893.3685302734375,-3.030527114868164,256.732421875,0.0,143,70,124,111,0.0,0.0,0.0,0
1631795375.465855,44,763,99782,-120.17578125,237.7265625,-31.95703125,-3534.0,-369.0,29674.0,-1.85539710521698,186.01736450195312,-773.1805419921875,226.22836303710938,479.6749267578125,0.0,253,172,242,177,0.0,0.0,0.0,0
1631795375.476329,44,533,99793,-120.17578125,237.7265625,-31.95703125,-6484.0,1504.0,35870.0,-22.688329696655273,133.8085479736328,-1069.7315673828125,317.5000305175781,386.78277587890625,0.0,255,175,227,219,0.0,0.0,0.0,0
1631795375.567337,44,284,99785,-120.17578125,237.7265625,-31.95703125,-4892.0,4384.0,46676.0,-3.8722238540649414,136.51876831054688,-1183.6864013671875,93.6011962890625,3.0275115966796875,0.0,254,202,255,246,0.0,0.0,0.0,0
1631795375.721835,44,214,99788,-120.17578125,237.7265625,-31.95703125,806.0,4317.0,56520.0,5.665463447570801,232.00131225585938,-1103.5550537109375,-72.39302062988281,-125.45050811767578,0.0,220,181,255,203,0.0,0.0,0.0,0
1631795375.822476,44,151,99790,-120.17578125,237.7265625,-31.95703125,3867.0,527.0,68109.0,10.05264949798584,242.83612060546875,-1053.2230224609375,-119.36222839355469,2.9602890014648438,0.0,239,182,253,191,0.0,0.0,0.0,0
1631795375.952625,44,123,99799,-120.17578125,237.7265625,-31.95703125,-1498.0,-1350.0,78203.0,10.763618469238281,199.9487762451172,-1126.3419189453125,-186.6981201171875,252.17959594726562,0.0,239,179,221,221,0.0,0.0,0.0,0
1631795376.055606,44,135,99788,-120.17578125,237.7265625,-31.95703125,-6339.0,-1950.0,91027.0,9.44981575012207,179.27662658691406,-1137.11181640625,-190.48243713378906,357.355712890625,0.0,239,181,229,212,0.0,0.0,0.0,0
1631795376.159858,44,122,99785,-120.17578125,237.7265625,-31.95703125,-8994.0,-614.0,102346.0,4.419254302978516,155.03689575195312,-1062.478759765625,-72.76447296142578,234.773681640625,0.0,247,160,233,212,0.0,0.0,0.0,0
1631795376.285811,44,162,99782,-120.17578125,237.7265625,-31.95703125,-6755.0,141.0,113079.0,-30.83114242553711,135.18983459472656,-1091.8265380859375,-94.88178253173828,-38.27674865722656,0.0,247,163,235,212,0.0,0.0,0.0,0
1631795376.556797,44,171,99802,-120.17578125,237.7265625,-31.95703125,-3490.0,-797.0,122029.0,14.04299545288086,158.8954620361328,-1131.072509765625,-127.70741271972656,-172.64215087890625,0.0,243,186,240,224,0.0,0.0,0.0,0
1631795376.5578,44,195,99788,-120.17578125,237.7265625,-31.95703125,-839.0,-2624.0,134830.0,13.601885795593262,180.74700927734375,-1139.6575927734375,-106.34642791748047,-351.3722229003906,0.0,255,196,228,218,0.0,0.0,0.0,0
1631795376.652549,44,223,99793,-120.17578125,237.7265625,-31.95703125,63.0,-5253.0,149069.0,19.363431930541992,152.8672332763672,-1092.8924560546875,-125.27973175048828,-281.6026306152344,0.0,249,191,218,215,0.0,0.0,0.0,0
1631795376.921109,44,228,99790,-120.17578125,237.7265625,-31.95703125,-705.0,-4824.0,165622.0,18.820152282714844,199.23153686523438,-1057.2552490234375,17.271289825439453,-181.0214385986328,0.0,245,191,222,215,0.0,0.0,0.0,0
1631795377.081505,44,245,99796,-120.17578125,237.7265625,-31.95703125,-551.0,-2971.0,-179287.0,11.631614685058594,203.43011474609375,-1050.8265380859375,118.58770751953125,-172.16648864746094,0.0,245,193,222,214,0.0,0.0,0.0,0
1631795377.091462,44,256,99790,-120.17578125,237.7265625,-31.95703125,337.0,-667.0,-165313.0,25.32609748840332,211.34518432617188,-1086.19970703125,153.9000244140625,-202.8808135986328,0.0,245,192,231,224,0.0,0.0,0.0,0
1631795377.176859,44,271,99793,-120.17578125,237.7265625,-31.95703125,1306.0,592.0,-149962.0,7.566446781158447,199.28811645507812,-1055.8057861328125,57.49832534790039,-189.73631286621094,0.0,239,185,227,220,0.0,0.0,0.0,0
1631795377.336875,44,287,99796,-120.17578125,237.7265625,-31.95703125,1107.0,327.0,-136369.0,-11.02178955078125,179.56448364257812,-1023.5730590820312,-13.772252082824707,-134.76156616210938,0.0,239,182,226,221,0.0,0.0,0.0,0
1631795377.416638,44,308,99793,-120.17578125,237.7265625,-31.95703125,1054.0,-452.0,-120438.0,-29.88954734802246,146.79066467285156,-1030.3568115234375,-73.55277252197266,-73.21281433105469,0.0,239,182,227,223,0.0,0.0,0.0,0
1631795377.567826,44,316,99793,-120.17578125,237.7265625,-31.95703125,627.0,-820.0,-114926.0,7.57033634185791,165.9298553466797,-1027.03466796875,-86.72319030761719,-54.12224578857422,0.0,239,181,219,217,0.0,0.0,0.0,0
1631795377.657007,44,334,99790,-120.17578125,237.7265625,-31.95703125,-556.0,-1879.0,-89565.0,-1.7589151859283447,148.4518280029297,-1025.7952880859375,-70.3495101928711,-9.303024291992188,0.0,245,182,222,223,0.0,0.0,0.0,0
1631795377.797884,44,333,99790,-120.17578125,237.7265625,-31.95703125,-642.0,-1900.0,-88344.0,9.244536399841309,163.3433074951172,-1029.3402099609375,-70.03723907470703,-10.539843559265137,0.0,246,187,226,222,0.0,0.0,0.0,0
1631795377.892694,44,790,99793,-120.17578125,237.7265625,-31.95703125,-328.0,-1705.0,-69283.0,-4.153905391693115,148.20269775390625,-724.5614624023438,-104.77681732177734,-199.9366912841797,0.0,211,153,204,191,0.0,0.0,0.0,0
1631795378.005813,44,508,99790,-120.17578125,237.7265625,-31.95703125,2544.0,-2477.0,-47586.0,-31.972658157348633,150.89459228515625,-1125.9888916015625,-73.23800659179688,-37.12346649169922,0.0,255,201,241,235,0.0,0.0,0.0,0
1631795378.138432,44,440,99785,-120.17578125,237.7265625,-31.95703125,1745.0,-2586.0,-41825.0,-23.561840057373047,198.1605682373047,-1162.632568359375,-30.383975982666016,33.23008728027344,0.0,255,199,238,234,0.0,0.0,0.0,0
1631795378.399399,44,362,99788,-120.17578125,237.7265625,-31.95703125,-363.0,-1696.0,-28816.0,-2.065018653869629,97.30313873291016,-1132.16650390625,78.68267822265625,88.14552307128906,0.0,249,184,228,232,0.0,0.0,0.0,0
1631795378.400423,44,308,99796,-120.17578125,237.7265625,-31.95703125,-795.0,1068.0,-15192.0,-17.730932235717773,153.092529296875,-1094.30615234375,118.99344635009766,56.283935546875,0.0,242,183,241,239,0.0,0.0,0.0,0
1631795378.593191,44,314,99788,-120.17578125,237.7265625,-31.95703125,2592.0,3523.0,7654.0,8.313838958740234,202.0577850341797,-1029.704833984375,58.74565887451172,94.07769775390625,0.0,230,172,255,199,0.0,0.0,0.0,0
1631795378.8065,44,315,99788,-120.17578125,237.7265625,-31.95703125,932.0,2103.0,24180.0,-12.003288269042969,131.95526123046875,-1058.3206787109375,25.968219757080078,207.0066680908203,0.0,246,186,252,226,0.0,0.0,0.0,0
1631795378.818775,44,320,99788,-120.17578125,237.7265625,-31.95703125,-1890.0,1349.0,35339.0,16.425655364990234,141.32073974609375,-1132.4698486328125,39.914669036865234,240.10244750976562,0.0,255,194,240,241,0.0,0.0,0.0,0
1631795379.033136,44,315,99782,-120.17578125,237.7265625,-31.95703125,-5353.0,456.0,48974.0,-15.205378532409668,184.69717407226562,-1089.004150390625,65.86450958251953,170.9458465576172,0.0,255,185,224,233,0.0,0.0,0.0,0
1631795379.06142,44,322,99802,-120.17578125,237.7265625,-31.95703125,-5792.0,311.0,53470.0,-15.699224472045898,181.75372314453125,-1061.6964111328125,85.2279052734375,123.19792175292969,0.0,255,190,230,234,0.0,0.0,0.0,0
1631795379.136538,44,334,99793,-120.17578125,237.7265625,-31.95703125,-4373.0,447.0,78328.0,22.005342483520508,202.62484741210938,-1066.504638671875,100.91275787353516,-67.08970642089844,0.0,252,188,227,229,0.0,0.0,0.0,0
1631795379.275407,44,342,99788,-120.17578125,237.7265625,-31.95703125,-2847.0,701.0,88987.0,-13.46200180053711,197.4641571044922,-1044.4566650390625,83.05470275878906,-137.15040588378906,0.0,244,182,224,225,0.0,0.0,0.0,0
1631795379.412653,44,366,99793,-120.17578125,237.7265625,-31.95703125,392.0,812.0,110203.0,-8.985136985778809,154.4687957763672,-1076.3558349609375,19.2126407623291,-191.8966522216797,0.0,242,180,229,229,0.0,0.0,0.0,0
1631795379.505034,44,371,99790,-120.17578125,237.7265625,-31.95703125,1607.0,-316.0,126243.0,5.002617835998535,201.3809814453125,-1054.2169189453125,-11.835814476013184,-159.67315673828125,0.0,242,189,231,223,0.0,0.0,0.0,0
1631795379.642853,44,386,99793,-120.17578125,237.7265625,-31.95703125,1308.0,-944.0,142793.0,27.055089950561523,201.90243530273438,-1038.700927734375,-16.181236267089844,-113.24285125732422,0.0,244,185,229,226,0.0,0.0,0.0,0
1631795379.745943,44,397,99793,-120.17578125,237.7265625,-31.95703125,479.0,-1368.0,157784.0,11.881937980651855,164.05032348632812,-1070.5804443359375,-20.70393180847168,-105.51761627197266,0.0,254,195,231,229,0.0,0.0,0.0,0
1631795379.867364,44,411,99782,-120.17578125,237.7265625,-31.95703125,-1181.0,-2335.0,178716.0,33.498756408691406,187.28842163085938,-1015.8421020507812,-4.069411754608154,-100.9767837524414,0.0,255,187,214,222,0.0,0.0,0.0,0
1631795380.100136,44,424,99788,-120.17578125,237.7265625,-31.95703125,-1307.0,-1845.0,-162686.0,-4.210940361022949,115.56755828857422,-1038.504638671875,9.13125228881836,-140.3057098388672,0.0,255,180,217,231,0.0,0.0,0.0,0
1631795380.121137,44,434,99793,-120.17578125,237.7265625,-31.95703125,140.0,-1216.0,-141448.0,7.9591450691223145,197.19432067871094,-1088.1656494140625,2.4941184520721436,-153.15518188476562,0.0,253,190,224,226,0.0,0.0,0.0,0
1631795380.314716,44,444,99788,-120.17578125,237.7265625,-31.95703125,1458.0,-784.0,-127187.0,3.1231470108032227,187.77320861816406,-1066.0040283203125,-10.842901229858398,-163.0668182373047,0.0,244,190,234,227,0.0,0.0,0.0,0
1631795380.394916,44,238,99785,-120.17578125,237.7265625,-31.95703125,4039.0,-77.0,-104258.0,13.682058334350586,199.88607788085938,-1067.0418701171875,-7.11024808883667,10.788911819458008,0.0,239,179,250,204,0.0,0.0,0.0,0
1631795380.611496,44,311,99788,-120.17578125,237.7265625,-31.95703125,4277.0,502.0,-88971.0,-25.463214874267578,149.13760375976562,-1013.9293823242188,-5.921600818634033,64.22191619873047,0.0,239,177,247,215,0.0,0.0,0.0,0
1631795380.768965,44,391,99790,-120.17578125,237.7265625,-31.95703125,3842.0,134.0,-72895.0,1.0891382694244385,198.62228393554688,-1023.7937622070312,-4.107627868652344,126.65386199951172,0.0,239,195,242,213,0.0,0.0,0.0,0
1631795380.779056,44,432,99785,-120.17578125,237.7265625,-31.95703125,2632.0,-393.0,-64865.0,-4.448049545288086,133.9468536376953,-1063.381103515625,13.316085815429688,154.69216918945312,0.0,241,185,222,217,0.0,0.0,0.0,0
1631795380.857015,44,492,99796,-120.17578125,237.7265625,-31.95703125,-2210.0,1161.0,-33524.0,-11.252188682556152,150.9795379638672,-1016.0032958984375,128.3379669189453,115.74276733398438,0.0,255,172,234,220,0.0,0.0,0.0,0
1631795381.024551,44,508,99782,-120.17578125,237.7265625,-31.95703125,-1446.0,3184.0,-18227.0,-4.844715595245361,165.62574768066406,-1033.5048828125,142.03530883789062,64.787353515625,0.0,255,166,248,211,0.0,0.0,0.0,0
1631795381.131051,44,513,99793,-120.17578125,237.7265625,-31.95703125,1389.0,3598.0,-232.0,-25.919492721557617,172.96229553222656,-1018.0119018554688,107.6065673828125,51.63685989379883,0.0,245,180,255,209,0.0,0.0,0.0,0
1631795381.255439,44,506,99793,-120.17578125,237.7265625,-31.95703125,2204.0,2867.0,13690.0,-25.362136840820312,122.41627502441406,-1042.3974609375,72.02047729492188,109.2759017944336,0.0,251,179,255,213,0.0,0.0,0.0,0
1631795381.502144,44,498,99796,-120.17578125,237.7265625,-31.95703125,535.0,2035.0,27083.0,12.580135345458984,194.5926055908203,-1061.0882568359375,42.12733459472656,179.68943786621094,0.0,255,187,249,212,0.0,0.0,0.0,0
1631795381.567385,44,494,99796,-120.17578125,237.7265625,-31.95703125,-924.0,1561.0,34020.0,8.813237190246582,184.29151916503906,-1063.9923095703125,45.35503005981445,184.191162109375,0.0,255,189,242,218,0.0,0.0,0.0,0
1631795381.6044,44,209,99793,-120.17578125,237.7265625,-31.95703125,-4196.0,1479.0,51511.0,20.24235725402832,152.96726989746094,-1021.1737670898438,70.96984100341797,160.28065490722656,0.0,255,163,234,199,0.0,0.0,0.0,0
1631795381.861577,44,270,99796,-120.17578125,237.7265625,-31.95703125,-4051.0,2127.0,63603.0,16.17774200439453,124.61683654785156,-1033.56201171875,46.365943908691406,77.98101806640625,0.0,244,177,230,216,0.0,0.0,0.0,0
1631795381.862827,44,318,99772,-120.17578125,237.7265625,-31.95703125,-1770.0,2580.0,75428.0,-30.092987060546875,185.04551696777344,-1074.8323974609375,30.102869033813477,27.68910026550293,0.0,236,190,239,223,0.0,0.0,0.0,0
1631795382.051779,44,342,99788,-120.17578125,237.7265625,-31.95703125,-95.0,2509.0,88976.0,10.826826095581055,149.4923553466797,-1077.883544921875,-15.22480583190918,11.221960067749023,0.0,242,189,246,220,0.0,0.0,0.0,0
1631795382.092119,44,355,99785,-120.17578125,237.7265625,-31.95703125,241.0,1486.0,102462.0,-2.7897348403930664,179.38833618164062,-1077.6512451171875,-45.25896072387695,49.18925476074219,0.0,242,195,240,225,0.0,0.0,0.0,0
1631795382.201884,44,359,99790,-120.17578125,237.7265625,-31.95703125,-2321.0,-688.0,116747.0,11.83813762664795,169.44302368164062,-1054.3072509765625,-66.91981506347656,70.86331939697266,0.0,252,190,220,221,0.0,0.0,0.0,0
1631795382.443083,44,350,99785,-120.17578125,237.7265625,-31.95703125,-5044.0,-1395.0,132948.0,-25.503131866455078,98.96019744873047,-1035.505126953125,-17.791488647460938,0.94688880443573,0.0,255,179,211,226,0.0,0.0,0.0,0
1631795382.478223,44,339,99793,-120.17578125,237.7265625,-31.95703125,-4636.0,-590.0,147459.0,-18.02008819580078,147.8781280517578,-1059.41748046875,-5.156836986541748,-91.44041442871094,0.0,255,188,224,230,0.0,0.0,0.0,0
1631795382.640711,44,323,99793,-120.17578125,237.7265625,-31.95703125,-2237.0,318.0,167037.0,24.58749771118164,149.74725341796875,-1114.4742431640625,-46.749610900878906,-155.23167419433594,0.0,255,192,231,232,0.0,0.0,0.0,0
1631795382.738466,44,317,99779,-120.17578125,237.7265625,-31.95703125,-233.0,-106.0,-171786.0,14.343399047851562,146.97666931152344,-1091.5037841796875,-104.35614776611328,-118.7318115234375,0.0,245,190,232,226,0.0,0.0,0.0,0
1631795382.870836,44,316,99788,-120.17578125,237.7265625,-31.95703125,0.0,-729.0,-154005.0,2.2796521186828613,207.919189453125,-1049.7850341796875,-118.09764862060547,-64.43025207519531,0.0,242,188,227,220,0.0,0.0,0.0,0
1631795382.978143,44,314,99799,-120.17578125,237.7265625,-31.95703125,-653.0,-1250.0,-134548.0,12.325222969055176,202.25592041015625,-1067.9112548828125,-113.93148803710938,-43.507591247558594,0.0,242,187,224,218,0.0,0.0,0.0,0
1631795383.101258,44,303,99790,-120.17578125,237.7265625,-31.95703125,-1221.0,-1443.0,-116463.0,-12.13438892364502,116.18418884277344,-930.9105224609375,-96.85206604003906,-19.92844009399414,0.0,242,117,224,162,0.0,0.0,0.0,0
1631795383.292929,44,271,99790,-120.17578125,237.7265625,-31.95703125,-640.0,-778.0,-102200.0,-5.871986389160156,151.05508422851562,-936.8720092773438,-85.04899597167969,-7.963189125061035,0.0,231,153,218,200,0.0,0.0,0.0,0
1631795383.328265,44,233,99793,-120.17578125,237.7265625,-31.95703125,-192.0,-1203.0,-87873.0,-7.880927562713623,145.46690368652344,-995.8943481445312,-92.271484375,-17.633970260620117,0.0,238,174,222,199,0.0,0.0,0.0,0
1631795383.440383,44,200,99790,-120.17578125,237.7265625,-31.95703125,-214.0,-1990.0,-73896.0,-17.08431625366211,154.5954132080078,-1038.2816162109375,-48.392494201660156,68.24046325683594,0.0,238,178,222,212,0.0,0.0,0.0,0
1631795383.705125,44,191,99782,-120.17578125,237.7265625,-31.95703125,-1610.0,-824.0,-63359.0,-4.640120506286621,212.77117919921875,-1061.3477783203125,8.715644836425781,107.44854736328125,0.0,236,173,225,211,0.0,0.0,0.0,0
1631795383.706185,44,184,99785,-120.17578125,237.7265625,-31.95703125,-1870.0,265.0,-58410.0,-23.36594009399414,122.96061706542969,-1055.160400390625,19.99692726135254,105.43631744384766,0.0,232,165,231,217,0.0,0.0,0.0,0
1631795383.886446,44,160,99790,-120.17578125,237.7265625,-31.95703125,-734.0,2538.0,-45608.0,-0.775540292263031,187.0403594970703,-1067.1717529296875,17.891498565673828,76.89244842529297,0.0,231,164,252,204,0.0,0.0,0.0,0
1631795383.92988,44,84,99799,-120.17578125,237.7265625,-31.95703125,91.0,3658.0,-26511.0,-30.04023551940918,111.9786605834961,-1176.8778076171875,-103.30327606201172,99.765380859375,0.0,229,180,253,229,0.0,0.0,0.0,0
1631795384.116949,44,129,99796,-120.17578125,237.7265625,-31.95703125,335.0,3730.0,-20508.0,-38.357852935791016,156.0296630859375,-1133.71826171875,-185.76583862304688,86.41230010986328,0.0,219,160,247,227,0.0,0.0,0.0,0
1631795384.199424,44,174,99790,-120.17578125,237.7265625,-31.95703125,-2120.0,-2165.0,5177.0,-19.29007339477539,179.29989624023438,-1123.2734375,-103.86997985839844,95.02193450927734,0.0,250,156,232,194,0.0,0.0,0.0,0
1631795384.356602,44,187,99785,-120.17578125,237.7265625,-31.95703125,-2854.0,-2759.0,8291.0,-33.769805908203125,136.7251434326172,-1131.172119140625,-67.16522979736328,58.48739242553711,0.0,255,150,232,186,0.0,0.0,0.0,0
1631795384.432714,44,195,99790,-120.17578125,237.7265625,-31.95703125,-3097.0,-2762.0,27957.0,23.885356903076172,156.4534149169922,-1087.63916015625,-131.68521118164062,358.12646484375,0.0,236,162,240,197,0.0,0.0,0.0,0
1631795384.578438,44,191,99788,-120.17578125,237.7265625,-31.95703125,-6694.0,-3076.0,35497.0,-11.800931930541992,178.73416137695312,-993.3539428710938,-11.57730484008789,410.3013916015625,0.0,255,164,234,197,0.0,0.0,0.0,0
1631795384.715151,44,199,99785,-120.17578125,237.7265625,-31.95703125,-9643.0,-2934.0,43332.0,2.0210466384887695,153.17364501953125,-987.7025146484375,148.19468688964844,81.01962280273438,0.0,255,168,211,218,0.0,0.0,0.0,0
1631795384.817345,44,181,99790,-120.17578125,237.7265625,-31.95703125,-8681.0,-1433.0,47257.0,-38.03833770751953,221.91439819335938,-1006.0736083984375,187.06642150878906,-109.29273986816406,0.0,255,167,231,212,0.0,0.0,0.0,0
1631795385.031368,44,184,99788,-120.17578125,237.7265625,-31.95703125,-1134.0,42.0,57698.0,-31.71759605407715,168.9505157470703,-1041.2911376953125,150.81719970703125,-416.4213562011719,0.0,255,162,239,193,0.0,0.0,0.0,0
1631795385.059088,44,197,99790,-120.17578125,237.7265625,-31.95703125,3513.0,-484.0,63938.0,32.12272644042969,259.64935302734375,-1028.484375,63.7567253112793,-428.1186218261719,0.0,255,160,245,184,0.0,0.0,0.0,0
1631795385.164215,44,190,99793,-120.17578125,237.7265625,-31.95703125,3613.0,-2010.0,68236.0,17.587129592895508,137.58836364746094,-1026.217529296875,33.182899475097656,-299.17840576171875,0.0,250,177,218,210,0.0,0.0,0.0,0
1631795385.287707,44,189,99793,-120.17578125,237.7265625,-31.95703125,2057.0,-2150.0,73993.0,16.727733612060547,200.67666625976562,-1048.50830078125,78.33214569091797,-207.5535888671875,0.0,245,178,221,211,0.0,0.0,0.0,0
1631795385.523502,44,155,99790,-120.17578125,237.7265625,-31.95703125,1660.0,-355.0,80694.0,8.339367866516113,236.32937622070312,-1057.923095703125,88.53622436523438,-148.31056213378906,0.0,245,180,234,216,0.0,0.0,0.0,0
1631795385.546864,44,196,99796,-120.17578125,237.7265625,-31.95703125,961.0,751.0,85944.0,17.62325096130371,217.19883728027344,-1024.2117919921875,71.88372802734375,-116.9942398071289,0.0,245,162,230,204,0.0,0.0,0.0,0
1631795385.658823,44,198,99793,-120.17578125,237.7265625,-31.95703125,801.0,1072.0,89907.0,6.243900775909424,198.1016845703125,-1023.6810913085938,46.95622253417969,-132.1781005859375,0.0,245,168,226,208,0.0,0.0,0.0,0
1631795385.911768,44,181,99790,-120.17578125,237.7265625,-31.95703125,1477.0,553.0,97766.0,13.377572059631348,184.14369201660156,-1061.0762939453125,-10.153228759765625,-93.81349182128906,0.0,245,176,236,208,0.0,0.0,0.0,0
1631795385.957284,44,206,99790,-120.17578125,237.7265625,-31.95703125,1128.0,-444.0,104452.0,26.230152130126953,194.81715393066406,-1044.51611328125,-41.567745208740234,-24.484621047973633,0.0,245,167,229,202,0.0,0.0,0.0,0
1631795386.053468,44,215,99788,-120.17578125,237.7265625,-31.95703125,417.0,-1200.0,110373.0,12.829471588134766,170.58607482910156,-1036.30712890625,-57.23942565917969,9.208722114562988,0.0,245,169,224,205,0.0,0.0,0.0,0
1631795386.200025,44,185,99793,-120.17578125,237.7265625,-31.95703125,-488.0,-1657.0,118383.0,-7.9809722900390625,201.51223754882812,-1044.437255859375,-37.9925651550293,38.408477783203125,0.0,244,182,225,219,0.0,0.0,0.0,0
1631795386.310975,44,162,99788,-120.17578125,237.7265625,-31.95703125,-836.0,-1244.0,124584.0,17.618715286254883,131.0791778564453,-1023.2054443359375,-16.560489654541016,28.666900634765625,0.0,239,184,225,219,0.0,0.0,0.0,0
1631795386.583343,44,140,99782,-120.17578125,237.7265625,-31.95703125,259.0,-678.0,130074.0,-32.72380828857422,175.0757598876953,-1098.79736328125,-2.7793631553649902,26.24523162841797,0.0,239,182,225,221,0.0,0.0,0.0,0
1631795386.58499,44,175,99793,-120.17578125,237.7265625,-31.95703125,-1055.0,-484.0,140653.0,-1.4613218307495117,175.30389404296875,-806.2045288085938,-51.4975700378418,99.72246551513672,0.0,239,139,212,178,0.0,0.0,0.0,0
1631795386.685144,44,40,99790,-120.17578125,237.7265625,-31.95703125,-392.0,-1119.0,146963.0,-18.4862117767334,208.2584228515625,-1106.7718505859375,-14.105693817138672,68.42538452148438,0.0,241,183,221,211,0.0,0.0,0.0,0
1631795386.784991,44,92,99788,-120.17578125,237.7265625,-31.95703125,-447.0,-1901.0,152826.0,-31.988651275634766,101.63300323486328,-997.0415649414062,-2.640554428100586,40.26782989501953,0.0,254,138,226,165,0.0,0.0,0.0,0
1631795386.900276,44,67,99788,-120.17578125,237.7265625,-31.95703125,-773.0,-1915.0,154055.0,5.243257522583008,166.75726318359375,-1102.54443359375,37.16093444824219,28.661502838134766,0.0,255,171,220,205,0.0,0.0,0.0,0
1631795387.160314,44,74,99785,-120.17578125,237.7265625,-31.95703125,-1538.0,-1267.0,153059.0,-18.345325469970703,126.66384887695312,-1058.6722412109375,129.67677307128906,-7.970914840698242,0.0,255,140,231,179,0.0,0.0,0.0,0
1631795387.161229,44,0,99790,-120.17578125,237.7265625,-31.95703125,-501.0,-509.0,150493.0,49.46198272705078,229.39129638671875,-908.7501220703125,0.0,0.0,0.0,0,0,0,0,0.0,0.0,0.0,0
1631795387.35492,44,0,99779,-120.17578125,237.7265625,-31.95703125,-390.0,-534.0,150491.0,-0.3805026113986969,166.00758361816406,-1038.11474609375,0.0,0.0,0.0,0,0,0,0,0.0,0.0,0.0,0
1631795387.56766,44,0,99793,-120.17578125,237.7265625,-31.95703125,-377.0,-497.0,150485.0,4.540469169616699,173.8988037109375,-1034.2568359375,0.0,0.0,0.0,0,0,0,0,0.0,0.0,0.0,0
1631795387.581433,44,0,99788,-120.17578125,237.7265625,-31.95703125,-371.0,-489.0,150481.0,-0.6547013521194458,173.71377563476562,-1036.647216796875,0.0,0.0,0.0,0,0,0,0,0.0,0.0,0.0,0
1631795387.793855,44,0,99799,-120.17578125,237.7265625,-31.95703125,-366.0,-469.0,150474.0,-4.795068264007568,161.71600341796875,-1035.80908203125,0.0,0.0,0.0,0,0,0,0,0.0,0.0,0.0,0
1631795387.825677,44,0,99785,-120.17578125,237.7265625,-31.95703125,-367.0,-449.0,150472.0,1.6328163146972656,171.00064086914062,-1034.91259765625,0.0,0.0,0.0,0,0,0,0,0.0,0.0,0.0,0
1631795387.903508,44,0,99796,-120.17578125,237.7265625,-31.95703125,-336.0,-437.0,150465.0,-2.1706161499023438,161.3751220703125,-1033.892578125,0.0,0.0,0.0,0,0,0,0,0.0,0.0,0.0,0
1631795388.036956,44,0,99796,-120.17578125,237.7265625,-31.95703125,-305.0,-426.0,150463.0,-0.367826372385025,162.35484313964844,-1037.36181640625,0.0,0.0,0.0,0,0,0,0,0.0,0.0,0.0,0
1631795388.17433,44,0,99796,-120.17578125,237.7265625,-31.95703125,-282.0,-412.0,150456.0,0.705858588218689,163.10708618164062,-1037.28466796875,0.0,0.0,0.0,0,0,0,0,0.0,0.0,0.0,0
1631795388.277126,44,0,99788,-120.17578125,237.7265625,-31.95703125,-267.0,-399.0,150452.0,-0.22220635414123535,163.11447143554688,-1037.421875,0.0,0.0,0.0,0,0,0,0,0.0,0.0,0.0,0
1631795388.404958,44,0,99782,-120.17578125,237.7265625,-31.95703125,-245.0,-388.0,150449.0,-0.27113810181617737,163.58978271484375,-1037.3792724609375,0.0,0.0,0.0,0,0,0,0,0.0,0.0,0.0,0
1631795388.499849,44,0,99790,-120.17578125,237.7265625,-31.95703125,-221.0,-379.0,150445.0,-0.17078818380832672,162.20895385742188,-1041.2890625,0.0,0.0,0.0,0,0,0,0,0.0,0.0,0.0,0
1631795388.623155,44,0,99793,-120.17578125,237.7265625,-31.95703125,-197.0,-372.0,150438.0,2.0430524349212646,162.94667053222656,-1037.4072265625,0.0,0.0,0.0,0,0,0,0,0.0,0.0,0.0,0
1631795388.882275,44,0,99793,-120.17578125,237.7265625,-31.95703125,-186.0,-369.0,150434.0,1.6213568449020386,161.5906524658203,-1039.2313232421875,0.0,0.0,0.0,0,0,0,0,0.0,0.0,0.0,0
1631795389.070942,44,0,99796,-120.17578125,237.7265625,-31.95703125,-166.0,-359.0,150428.0,7.440572738647461,168.36721801757812,-1039.2547607421875,0.0,0.0,0.0,0,0,0,0,0.0,0.0,0.0,0
1631795389.08933,44,0,99793,-120.17578125,237.7265625,-31.95703125,-149.0,-349.0,150420.0,-0.2754395604133606,162.87069702148438,-1038.8974609375,0.0,0.0,0.0,0,0,0,0,0.0,0.0,0.0,0
1631795389.171995,44,0,99790,-120.17578125,237.7265625,-31.95703125,-150.0,-343.0,150412.0,5.376323223114014,160.9456787109375,-1037.4422607421875,0.0,0.0,0.0,0,0,0,0,0.0,0.0,0.0,0
1631795389.374829,44,0,99796,-120.17578125,237.7265625,-31.95703125,-140.0,-341.0,150413.0,-0.19694863259792328,161.97601318359375,-1038.8958740234375,0.0,0.0,0.0,0,0,0,0,0.0,0.0,0.0,0
1631795389.531741,44,0,99793,-120.17578125,237.7265625,-31.95703125,-135.0,-338.0,150404.0,-0.2823399007320404,162.45339965820312,-1039.1162109375,0.0,0.0,0.0,0,0,0,0,0.0,0.0,0.0,0
1631795389.542035,44,0,99790,-120.17578125,237.7265625,-31.95703125,-131.0,-338.0,150398.0,-0.19508205354213715,165.89492797851562,-1037.3519287109375,0.0,0.0,0.0,0,0,0,0,0.0,0.0,0.0,0
1631795389.618772,44,0,99799,-120.17578125,237.7265625,-31.95703125,-124.0,-333.0,150393.0,-0.22403018176555634,164.40199279785156,-1035.71435546875,0.0,0.0,0.0,0,0,0,0,0.0,0.0,0.0,0
1631795389.787673,44,0,99790,-120.17578125,237.7265625,-31.95703125,-116.0,-331.0,150391.0,-0.21401347219944,172.05885314941406,-1037.3626708984375,0.0,0.0,0.0,0,0,0,0,0.0,0.0,0.0,0
1631795389.89326,44,0,99793,-120.17578125,237.7265625,-31.95703125,-116.0,-331.0,150390.0,-0.1964772343635559,162.59283447265625,-1037.3636474609375,0.0,0.0,0.0,0,0,0,0,0.0,0.0,0.0,0
1631795390.019045,44,0,99793,-120.17578125,237.7265625,-31.95703125,-74.0,-326.0,150385.0,-0.38989052176475525,156.1898193359375,-1037.36572265625,0.0,0.0,0.0,0,0,0,0,0.0,0.0,0.0,0
1631795390.112311,44,0,99796,-120.17578125,237.7265625,-31.95703125,-43.0,-316.0,150375.0,4.308189392089844,156.2062225341797,-1031.78125,0.0,0.0,0.0,0,0,0,0,0.0,0.0,0.0,0
1631795390.226373,44,0,99793,-120.17578125,237.7265625,-31.95703125,-8.0,-315.0,150373.0,-0.3829157054424286,154.85159301757812,-1042.50927734375,0.0,0.0,0.0,0,0,0,0,0.0,0.0,0.0,0
1631795390.35187,44,0,99790,-120.17578125,237.7265625,-31.95703125,18.0,-310.0,150370.0,-0.9100180864334106,162.9085235595703,-1041.14501953125,0.0,0.0,0.0,0,0,0,0,0.0,0.0,0.0,0
1631795390.619529,44,0,99790,-120.17578125,237.7265625,-31.95703125,34.0,-306.0,150363.0,1.5167518854141235,162.54087829589844,-1044.7998046875,0.0,0.0,0.0,0,0,0,0,0.0,0.0,0.0,0
1631795390.620918,44,0,99793,-120.17578125,237.7265625,-31.95703125,65.0,-303.0,150361.0,-0.45663782954216003,154.92762756347656,-1038.2265625,0.0,0.0,0.0,0,0,0,0,0.0,0.0,0.0,0
1631795390.721275,44,0,99796,-120.17578125,237.7265625,-31.95703125,92.0,-297.0,150358.0,-0.052861861884593964,154.4827117919922,-1036.9407958984375,0.0,0.0,0.0,0,0,0,0,0.0,0.0,0.0,0
1631795390.953445,44,0,99796,-120.17578125,237.7265625,-31.95703125,118.0,-295.0,150355.0,-0.31773650646209717,163.37974548339844,-1040.9404296875,0.0,0.0,0.0,0,0,0,0,0.0,0.0,0.0,0
1631795391.11563,44,0,99802,-120.17578125,237.7265625,-31.95703125,127.0,-293.0,150345.0,-0.31255826354026794,162.37991333007812,-1038.9691162109375,0.0,0.0,0.0,0,0,0,0,0.0,0.0,0.0,0
1631795391.173788,44,0,99796,-120.17578125,237.7265625,-31.95703125,133.0,-293.0,150340.0,-0.26329681277275085,162.89231872558594,-1038.06005859375,0.0,0.0,0.0,0,0,0,0,0.0,0.0,0.0,0
1631795391.338372,44,0,99790,-120.17578125,237.7265625,-31.95703125,148.0,-295.0,150335.0,-0.4018189609050751,154.30455017089844,-1043.6943359375,0.0,0.0,0.0,0,0,0,0,0.0,0.0,0.0,0
1631795391.395011,44,0,99799,-120.17578125,237.7265625,-31.95703125,153.0,-295.0,150331.0,-0.33046743273735046,161.07257080078125,-1043.71240234375,0.0,0.0,0.0,0,0,0,0,0.0,0.0,0.0,0
1631795391.50947,44,0,99799,-120.17578125,237.7265625,-31.95703125,156.0,-294.0,150328.0,3.0660250186920166,162.90875244140625,-1046.5400390625,0.0,0.0,0.0,0,0,0,0,0.0,0.0,0.0,0
1631795391.616882,44,0,99793,-120.17578125,237.7265625,-31.95703125,164.0,-283.0,150325.0,-0.2379256784915924,154.85789489746094,-1044.82861328125,0.0,0.0,0.0,0,0,0,0,0.0,0.0,0.0,0
1631795391.740734,44,0,99790,-120.17578125,237.7265625,-31.95703125,185.0,-284.0,150319.0,-0.5801891088485718,153.94766235351562,-1039.779296875,0.0,0.0,0.0,0,0,0,0,0.0,0.0,0.0,0
1631795391.847495,44,0,99799,-120.17578125,237.7265625,-31.95703125,204.0,-283.0,150315.0,-0.33601656556129456,162.6842498779297,-1042.74267578125,0.0,0.0,0.0,0,0,0,0,0.0,0.0,0.0,0
1631795391.980549,44,0,99799,-120.17578125,237.7265625,-31.95703125,212.0,-281.0,150313.0,-0.4863821268081665,154.27838134765625,-1038.8948974609375,0.0,0.0,0.0,0,0,0,0,0.0,0.0,0.0,0
1631795392.078106,44,0,99788,-120.17578125,237.7265625,-31.95703125,211.0,-281.0,150310.0,-0.14735952019691467,163.05799865722656,-1037.716796875,0.0,0.0,0.0,0,0,0,0,0.0,0.0,0.0,0
1631795392.202286,44,0,99793,-120.17578125,237.7265625,-31.95703125,208.0,-280.0,150307.0,-0.3141467273235321,162.9371795654297,-1037.3427734375,0.0,0.0,0.0,0,0,0,0,0.0,0.0,0.0,0
1631795392.453698,44,0,99796,-120.17578125,237.7265625,-31.95703125,228.0,-266.0,150299.0,-0.46604397892951965,154.97401428222656,-1036.48095703125,0.0,0.0,0.0,0,0,0,0,0.0,0.0,0.0,0
1631795392.480869,44,0,99796,-120.17578125,237.7265625,-31.95703125,236.0,-259.0,150296.0,7.170191764831543,163.1383514404297,-1037.58203125,0.0,0.0,0.0,0,0,0,0,0.0,0.0,0.0,0
1631795392.581339,44,0,99793,-120.17578125,237.7265625,-31.95703125,234.0,-256.0,150292.0,6.6930108070373535,164.33108520507812,-1037.5634765625,0.0,0.0,0.0,0,0,0,0,0.0,0.0,0.0,0
1631795392.830296,44,0,99790,-120.17578125,237.7265625,-31.95703125,257.0,-245.0,150285.0,-0.16200630366802216,160.7610626220703,-1036.47119140625,0.0,0.0,0.0,0,0,0,0,0.0,0.0,0.0,0
1631795392.989735,44,0,99790,-120.17578125,237.7265625,-31.95703125,266.0,-240.0,150279.0,-0.1879153847694397,163.4098358154297,-1037.36572265625,0.0,0.0,0.0,0,0,0,0,0.0,0.0,0.0,0
1631795393.000113,44,0,99802,-120.17578125,237.7265625,-31.95703125,270.0,-237.0,150273.0,-0.21097023785114288,162.73532104492188,-1037.25390625,0.0,0.0,0.0,0,0,0,0,0.0,0.0,0.0,0
1631795393.07695,44,0,99793,-120.17578125,237.7265625,-31.95703125,279.0,-237.0,150270.0,-0.1545829027891159,154.65626525878906,-1044.947265625,0.0,0.0,0.0,0,0,0,0,0.0,0.0,0.0,0
1631795393.246847,44,0,99796,-120.17578125,237.7265625,-31.95703125,276.0,-239.0,150266.0,-0.22449177503585815,163.01571655273438,-1039.46435546875,0.0,0.0,0.0,0,0,0,0,0.0,0.0,0.0,0
1631795393.326062,44,0,99793,-120.17578125,237.7265625,-31.95703125,270.0,-243.0,150261.0,-0.3816671371459961,162.802978515625,-1046.8114013671875,0.0,0.0,0.0,0,0,0,0,0.0,0.0,0.0,0
1631795393.477117,44,0,99799,-120.17578125,237.7265625,-31.95703125,273.0,-245.0,150257.0,-0.2487276792526245,162.5707550048828,-1044.5745849609375,0.0,0.0,0.0,0,0,0,0,0.0,0.0,0.0,0
1631795393.579738,44,0,99802,-120.17578125,237.7265625,-31.95703125,299.0,-243.0,150252.0,-0.33310607075691223,154.23570251464844,-1036.6326904296875,0.0,0.0,0.0,0,0,0,0,0.0,0.0,0.0,0
1631795393.708604,44,0,99796,-120.17578125,237.7265625,-31.95703125,302.0,-244.0,150249.0,-0.4513435363769531,154.44769287109375,-1038.21337890625,0.0,0.0,0.0,0,0,0,0,0.0,0.0,0.0,0
1631795393.802689,44,0,99796,-120.17578125,237.7265625,-31.95703125,315.0,-244.0,150239.0,0.0051485151052474976,155.2962188720703,-1037.38916015625,0.0,0.0,0.0,0,0,0,0,0.0,0.0,0.0,0
1631795393.922518,44,0,99790,-120.17578125,237.7265625,-31.95703125,328.0,-242.0,150231.0,-0.49754902720451355,154.9312744140625,-1038.98828125,0.0,0.0,0.0,0,0,0,0,0.0,0.0,0.0,0
1631795394.048963,44,0,99799,-120.17578125,237.7265625,-31.95703125,329.0,-241.0,150228.0,-0.388886958360672,154.4669189453125,-1037.4013671875,0.0,0.0,0.0,0,0,0,0,0.0,0.0,0.0,0
1631795394.288907,44,0,99790,-120.17578125,237.7265625,-31.95703125,334.0,-245.0,150226.0,-0.24112221598625183,162.8773956298828,-1041.02978515625,0.0,0.0,0.0,0,0,0,0,0.0,0.0,0.0,0
1631795394.306182,44,0,99790,-120.17578125,237.7265625,-31.95703125,336.0,-245.0,150222.0,-0.3370797634124756,156.0331268310547,-1045.00537109375,0.0,0.0,0.0,0,0,0,0,0.0,0.0,0.0,0
1631795394.502339,44,0,99790,-120.17578125,237.7265625,-31.95703125,339.0,-245.0,150218.0,-0.35268184542655945,155.500732421875,-1045.015625,0.0,0.0,0.0,0,0,0,0,0.0,0.0,0.0,0
1631795394.541658,44,0,99793,-120.17578125,237.7265625,-31.95703125,335.0,-245.0,150214.0,-0.4056255519390106,153.03341674804688,-1036.82763671875,0.0,0.0,0.0,0,0,0,0,0.0,0.0,0.0,0
1631795394.723036,44,0,99799,-120.17578125,237.7265625,-31.95703125,342.0,-241.0,150208.0,-1.6748095750808716,162.1662139892578,-1038.19677734375,0.0,0.0,0.0,0,0,0,0,0.0,0.0,0.0,0
1631795394.811143,44,0,99793,-120.17578125,237.7265625,-31.95703125,361.0,-245.0,150200.0,0.2723117470741272,154.82337951660156,-1037.29931640625,0.0,0.0,0.0,0,0,0,0,0.0,0.0,0.0,0
1631795394.963203,44,0,99788,-120.17578125,237.7265625,-31.95703125,367.0,-246.0,150196.0,-0.3088788092136383,163.54310607910156,-1041.82470703125,0.0,0.0,0.0,0,0,0,0,0.0,0.0,0.0,0
1631795395.045814,44,0,99785,-120.17578125,237.7265625,-31.95703125,358.0,-236.0,150194.0,0.04039807245135307,162.8789520263672,-1045.6083984375,0.0,0.0,0.0,0,0,0,0,0.0,0.0,0.0,0
1631795395.184856,44,0,99796,-120.17578125,237.7265625,-31.95703125,356.0,-237.0,150194.0,-0.48364055156707764,162.89930725097656,-1045.244140625,0.0,0.0,0.0,0,0,0,0,0.0,0.0,0.0,0
1631795395.321063,44,0,99796,-120.17578125,237.7265625,-31.95703125,345.0,-236.0,150182.0,-0.3304360508918762,163.18919372558594,-1044.9866943359375,0.0,0.0,0.0,0,0,0,0,0.0,0.0,0.0,0
1631795395.415179,44,0,99796,-120.17578125,237.7265625,-31.95703125,346.0,-236.0,150182.0,-0.5092340707778931,153.38563537597656,-1045.12158203125,0.0,0.0,0.0,0,0,0,0,0.0,0.0,0.0,0
1631795395.528895,44,0,99799,-120.17578125,237.7265625,-31.95703125,341.0,-230.0,150174.0,5.335480213165283,154.91761779785156,-1037.5321044921875,0.0,0.0,0.0,0,0,0,0,0.0,0.0,0.0,0
1631795395.655693,44,0,99790,-120.17578125,237.7265625,-31.95703125,345.0,-229.0,150173.0,-1.7675210237503052,154.72164916992188,-1037.33056640625,0.0,0.0,0.0,0,0,0,0,0.0,0.0,0.0,0
1631795395.777217,44,0,99790,-120.17578125,237.7265625,-31.95703125,347.0,-233.0,150163.0,-0.3198767900466919,162.95059204101562,-1038.40673828125,0.0,0.0,0.0,0,0,0,0,0.0,0.0,0.0,0
1631795396.027476,44,0,99788,-120.17578125,237.7265625,-31.95703125,343.0,-233.0,150159.0,6.612390041351318,162.66741943359375,-1045.5472412109375,0.0,0.0,0.0,0,0,0,0,0.0,0.0,0.0,0
1631795396.028608,44,0,99788,-120.17578125,237.7265625,-31.95703125,330.0,-212.0,150152.0,1.0962297916412354,162.81187438964844,-1045.337890625,0.0,0.0,0.0,0,0,0,0,0.0,0.0,0.0,0
1631795396.28859,44,0,99796,-120.17578125,237.7265625,-31.95703125,332.0,-210.0,150153.0,-0.28715482354164124,155.88539123535156,-1038.39794921875,0.0,0.0,0.0,0,0,0,0,0.0,0.0,0.0,0
1631795396.448259,44,0,99793,-120.17578125,237.7265625,-31.95703125,329.0,-212.0,150148.0,1.0899803638458252,157.58004760742188,-1045.19091796875,0.0,0.0,0.0,0,0,0,0,0.0,0.0,0.0,0
1631795396.45852,44,0,99793,-120.17578125,237.7265625,-31.95703125,321.0,-212.0,150142.0,-0.17103825509548187,162.85435485839844,-1043.39892578125,0.0,0.0,0.0,0,0,0,0,0.0,0.0,0.0,0
1631795396.685427,44,0,99802,-120.17578125,237.7265625,-31.95703125,321.0,-214.0,150138.0,-1.796088695526123,163.047607421875,-1045.29931640625,0.0,0.0,0.0,0,0,0,0,0.0,0.0,0.0,0
1631795396.686927,44,0,99796,-120.17578125,237.7265625,-31.95703125,314.0,-212.0,150134.0,-0.36666619777679443,162.98495483398438,-1040.85107421875,0.0,0.0,0.0,0,0,0,0,0.0,0.0,0.0,0
1631795396.772725,44,0,99785,-120.17578125,237.7265625,-31.95703125,322.0,-210.0,150129.0,0.6125985980033875,164.5445556640625,-1038.361328125,0.0,0.0,0.0,0,0,0,0,0.0,0.0,0.0,0
1631795396.934702,44,0,99796,-120.17578125,237.7265625,-31.95703125,312.0,-202.0,150124.0,-0.41640904545783997,162.81851196289062,-1044.0244140625,0.0,0.0,0.0,0,0,0,0,0.0,0.0,0.0,0
1631795397.02506,44,0,99802,-120.17578125,237.7265625,-31.95703125,298.0,-206.0,150113.0,0.4196981191635132,159.38526916503906,-1046.1083984375,0.0,0.0,0.0,0,0,0,0,0.0,0.0,0.0,0
1631795397.165076,44,0,99790,-120.17578125,237.7265625,-31.95703125,299.0,-205.0,150110.0,2.944401264190674,160.16941833496094,-1045.3359375,0.0,0.0,0.0,0,0,0,0,0.0,0.0,0.0,0
1631795397.258934,44,0,99796,-120.17578125,237.7265625,-31.95703125,303.0,-197.0,150104.0,-1.1069073677062988,162.57659912109375,-1045.86865234375,0.0,0.0,0.0,0,0,0,0,0.0,0.0,0.0,0
1631795397.372302,44,0,99796,-120.17578125,237.7265625,-31.95703125,290.0,-197.0,150102.0,-0.8152581453323364,166.496337890625,-1043.4453125,0.0,0.0,0.0,0,0,0,0,0.0,0.0,0.0,0
1631795397.505717,44,0,99796,-120.17578125,237.7265625,-31.95703125,281.0,-201.0,150097.0,-0.3620043396949768,162.82676696777344,-1045.2825927734375,0.0,0.0,0.0,0,0,0,0,0.0,0.0,0.0,0
1631795397.765709,44,0,99793,-120.17578125,237.7265625,-31.95703125,279.0,-204.0,150090.0,-0.6114394068717957,162.57574462890625,-1045.7763671875,0.0,0.0,0.0,0,0,0,0,0.0,0.0,0.0,0
1631795397.767084,44,0,99793,-120.17578125,237.7265625,-31.95703125,268.0,-190.0,150087.0,7.356468677520752,162.81930541992188,-1042.783203125,0.0,0.0,0.0,0,0,0,0,0.0,0.0,0.0,0
1631795397.950707,44,0,99790,-120.17578125,237.7265625,-31.95703125,264.0,-184.0,150083.0,-0.8161848783493042,162.9118194580078,-1045.19384765625,0.0,0.0,0.0,0,0,0,0,0.0,0.0,0.0,0
1631795397.994125,44,0,99790,-120.17578125,237.7265625,-31.95703125,259.0,-166.0,150078.0,7.4216179847717285,162.5433349609375,-1045.46826171875,0.0,0.0,0.0,0,0,0,0,0.0,0.0,0.0,0
1631795398.190732,44,0,99799,-120.17578125,237.7265625,-31.95703125,253.0,-147.0,150073.0,0.9037516713142395,162.7999267578125,-1041.82373046875,0.0,0.0,0.0,0,0,0,0,0.0,0.0,0.0,0
1631795398.291197,44,0,99790,-120.17578125,237.7265625,-31.95703125,275.0,-141.0,150067.0,-0.28733155131340027,155.74722290039062,-1036.7763671875,0.0,0.0,0.0,0,0,0,0,0.0,0.0,0.0,0
1631795398.381963,44,0,99796,-120.17578125,237.7265625,-31.95703125,296.0,-144.0,150063.0,-0.34088656306266785,154.84585571289062,-1037.359375,0.0,0.0,0.0,0,0,0,0,0.0,0.0,0.0,0
1631795398.54891,44,0,99796,-120.17578125,237.7265625,-31.95703125,306.0,-132.0,150058.0,8.543482780456543,156.16946411132812,-1045.482421875,0.0,0.0,0.0,0,0,0,0,0.0,0.0,0.0,0
1631795398.647205,44,0,99790,-120.17578125,237.7265625,-31.95703125,303.0,-133.0,150056.0,0.49240487813949585,157.75924682617188,-1045.2685546875,0.0,0.0,0.0,0,0,0,0,0.0,0.0,0.0,0
1631795398.779376,44,0,99793,-120.17578125,237.7265625,-31.95703125,313.0,-136.0,150051.0,-0.6434117555618286,155.1265869140625,-1043.712890625,0.0,0.0,0.0,0,0,0,0,0.0,0.0,0.0,0
1631795398.872778,44,0,99793,-120.17578125,237.7265625,-31.95703125,323.0,-133.0,150045.0,0.6422439813613892,161.66995239257812,-1036.7275390625,0.0,0.0,0.0,0,0,0,0,0.0,0.0,0.0,0
1631795398.985926,44,0,99796,-120.17578125,237.7265625,-31.95703125,323.0,-140.0,150038.0,6.176809787750244,162.70733642578125,-1045.72216796875,0.0,0.0,0.0,0,0,0,0,0.0,0.0,0.0,0
1631795399.112412,44,0,99799,-120.17578125,237.7265625,-31.95703125,323.0,-136.0,150035.0,-0.0966145396232605,159.0620880126953,-1053.20947265625,0.0,0.0,0.0,0,0,0,0,0.0,0.0,0.0,0
1631795399.379431,44,0,99805,-120.17578125,237.7265625,-31.95703125,321.0,-123.0,150030.0,3.946425437927246,155.58413696289062,-1046.67431640625,0.0,0.0,0.0,0,0,0,0,0.0,0.0,0.0,0
1631795399.380552,44,0,99788,-120.17578125,237.7265625,-31.95703125,319.0,-114.0,150025.0,-0.7362661957740784,162.88681030273438,-1044.4326171875,0.0,0.0,0.0,0,0,0,0,0.0,0.0,0.0,0
1631795399.490467,44,0,99788,-120.17578125,237.7265625,-31.95703125,327.0,-117.0,150024.0,-0.28548166155815125,157.93524169921875,-1038.3251953125,0.0,0.0,0.0,0,0,0,0,0.0,0.0,0.0,0
1631795399.735766,44,0,99796,-120.17578125,237.7265625,-31.95703125,325.0,-113.0,150019.0,6.6329240798950195,158.27365112304688,-1043.9677734375,0.0,0.0,0.0,0,0,0,0,0.0,0.0,0.0,0
1631795399.761912,44,0,99793,-120.17578125,237.7265625,-31.95703125,309.0,-111.0,150014.0,-0.804874837398529,162.9937286376953,-1037.435546875,0.0,0.0,0.0,0,0,0,0,0.0,0.0,0.0,0
1631795399.975449,44,0,99799,-120.17578125,237.7265625,-31.95703125,322.0,-120.0,150008.0,-0.4207328259944916,161.97776794433594,-1045.966796875,0.0,0.0,0.0,0,0,0,0,0.0,0.0,0.0,0
1631795399.998293,44,0,99790,-120.17578125,237.7265625,-31.95703125,329.0,-101.0,150001.0,-1.0948264598846436,154.81417846679688,-1043.79833984375,0.0,0.0,0.0,0,0,0,0,0.0,0.0,0.0,0
1631795400.162495,44,0,99796,-120.17578125,237.7265625,-31.95703125,327.0,-101.0,149998.0,-2.321425676345825,162.26492309570312,-1045.26953125,0.0,0.0,0.0,0,0,0,0,0.0,0.0,0.0,0
1631795400.23558,44,0,99793,-120.17578125,237.7265625,-31.95703125,324.0,-99.0,149994.0,0.2833903133869171,163.24655151367188,-1045.2861328125,0.0,0.0,0.0,0,0,0,0,0.0,0.0,0.0,0
1631795400.39288,44,0,99793,-120.17578125,237.7265625,-31.95703125,329.0,-99.0,149993.0,7.186774730682373,163.2449493408203,-1037.712890625,0.0,0.0,0.0,0,0,0,0,0.0,0.0,0.0,0
1631795400.493,44,0,99785,-120.17578125,237.7265625,-31.95703125,344.0,-98.0,149986.0,-0.32975679636001587,157.04766845703125,-1047.18017578125,0.0,0.0,0.0,0,0,0,0,0.0,0.0,0.0,0
1631795400.622927,44,0,99793,-120.17578125,237.7265625,-31.95703125,347.0,-89.0,149984.0,7.31671142578125,157.67124938964844,-1041.8203125,0.0,0.0,0.0,0,0,0,0,0.0,0.0,0.0,0
1631795400.72564,44,0,99799,-120.17578125,237.7265625,-31.95703125,338.0,-88.0,149980.0,8.195540428161621,162.05673217773438,-1045.48828125,0.0,0.0,0.0,0,0,0,0,0.0,0.0,0.0,0
1631795400.830758,44,0,99796,-120.17578125,237.7265625,-31.95703125,336.0,-87.0,149979.0,2.70715069770813,160.85720825195312,-1045.31640625,0.0,0.0,0.0,0,0,0,0,0.0,0.0,0.0,0
1631795400.954425,44,0,99802,-120.17578125,237.7265625,-31.95703125,328.0,-89.0,149975.0,-0.5481041073799133,153.50338745117188,-1047.23046875,0.0,0.0,0.0,0,0,0,0,0.0,0.0,0.0,0
1631795401.227078,44,0,99793,-120.17578125,237.7265625,-31.95703125,335.0,-92.0,149972.0,-0.9210007786750793,163.56727600097656,-1037.60009765625,0.0,0.0,0.0,0,0,0,0,0.0,0.0,0.0,0
1631795401.228113,44,0,99799,-120.17578125,237.7265625,-31.95703125,332.0,-87.0,149971.0,3.765018939971924,162.50729370117188,-1042.5634765625,0.0,0.0,0.0,0,0,0,0,0.0,0.0,0.0,0
1631795401.32841,44,0,99796,-120.17578125,237.7265625,-31.95703125,327.0,-87.0,149965.0,-1.7378077507019043,162.27566528320312,-1044.92822265625,0.0,0.0,0.0,0,0,0,0,0.0,0.0,0.0,0
1631795401.590915,44,0,99802,-120.17578125,237.7265625,-31.95703125,329.0,-97.0,149961.0,0.15398865938186646,156.48025512695312,-1045.0751953125,0.0,0.0,0.0,0,0,0,0,0.0,0.0,0.0,0
1631795401.750615,44,0,99793,-120.17578125,237.7265625,-31.95703125,326.0,-103.0,149954.0,-0.5991485714912415,163.30703735351562,-1045.84228515625,0.0,0.0,0.0,0,0,0,0,0.0,0.0,0.0,0
1631795401.761141,44,0,99793,-120.17578125,237.7265625,-31.95703125,336.0,-97.0,149949.0,0.5657830834388733,153.55162048339844,-1045.3427734375,0.0,0.0,0.0,0,0,0,0,0.0,0.0,0.0,0
1631795401.988053,44,0,99796,-120.17578125,237.7265625,-31.95703125,335.0,-91.0,149946.0,6.126834869384766,162.7080841064453,-1045.50830078125,0.0,0.0,0.0,0,0,0,0,0.0,0.0,0.0,0
1631795401.989093,44,0,99790,-120.17578125,237.7265625,-31.95703125,324.0,-86.0,149942.0,-1.085248589515686,162.8449249267578,-1044.951171875,0.0,0.0,0.0,0,0,0,0,0.0,0.0,0.0,0
1631795402.076863,44,0,99790,-120.17578125,237.7265625,-31.95703125,317.0,-97.0,149939.0,-0.44031572341918945,162.03782653808594,-1045.498046875,0.0,0.0,0.0,0,0,0,0,0.0,0.0,0.0,0
1631795402.236998,44,0,99796,-120.17578125,237.7265625,-31.95703125,306.0,-103.0,149933.0,-0.6853622794151306,162.8084259033203,-1036.43896484375,0.0,0.0,0.0,0,0,0,0,0.0,0.0,0.0,0
1631795402.33988,44,0,99799,-120.17578125,237.7265625,-31.95703125,306.0,-101.0,149925.0,0.013387726619839668,162.55886840820312,-1045.2509765625,0.0,0.0,0.0,0,0,0,0,0.0,0.0,0.0,0
1631795402.467629,44,0,99790,-120.17578125,237.7265625,-31.95703125,311.0,-106.0,149922.0,-0.2851130962371826,161.5819549560547,-1045.24267578125,0.0,0.0,0.0,0,0,0,0,0.0,0.0,0.0,0
1631795402.561541,44,0,99788,-120.17578125,237.7265625,-31.95703125,297.0,-111.0,149920.0,0.4441809058189392,162.7449493408203,-1045.2392578125,0.0,0.0,0.0,0,0,0,0,0.0,0.0,0.0,0
1631795402.675707,44,0,99790,-120.17578125,237.7265625,-31.95703125,288.0,-109.0,149916.0,8.149386405944824,162.94927978515625,-1044.86962890625,0.0,0.0,0.0,0,0,0,0,0.0,0.0,0.0,0
1631795402.809002,44,0,99790,-120.17578125,237.7265625,-31.95703125,297.0,-95.0,149909.0,7.639493465423584,161.3582000732422,-1043.95849609375,0.0,0.0,0.0,0,0,0,0,0.0,0.0,0.0,0
1631795403.06865,44,0,99785,-120.17578125,237.7265625,-31.95703125,289.0,-99.0,149906.0,-0.19874624907970428,162.69154357910156,-1045.4647216796875,0.0,0.0,0.0,0,0,0,0,0.0,0.0,0.0,0
1631795403.069828,44,0,99788,-120.17578125,237.7265625,-31.95703125,280.0,-102.0,149898.0,3.725656032562256,162.5344696044922,-1047.67578125,0.0,0.0,0.0,0,0,0,0,0.0,0.0,0.0,0
1631795403.262536,44,0,99793,-120.17578125,237.7265625,-31.95703125,276.0,-109.0,149893.0,1.0673975944519043,153.58908081054688,-1045.15625,0.0,0.0,0.0,0,0,0,0,0.0,0.0,0.0,0
1631795403.475341,44,0,99802,-120.17578125,237.7265625,-31.95703125,276.0,-105.0,149887.0,-1.0538434982299805,162.77833557128906,-1045.21533203125,0.0,0.0,0.0,0,0,0,0,0.0,0.0,0.0,0
1631795403.494477,44,0,99799,-120.17578125,237.7265625,-31.95703125,268.0,-103.0,149880.0,-0.1450577974319458,162.9872283935547,-1038.35107421875,0.0,0.0,0.0,0,0,0,0,0.0,0.0,0.0,0
1631795403.563408,44,0,99799,-120.17578125,237.7265625,-31.95703125,271.0,-98.0,149874.0,-1.2011395692825317,162.5823516845703,-1047.17919921875,0.0,0.0,0.0,0,0,0,0,0.0,0.0,0.0,0
1631795403.723331,44,0,99793,-120.17578125,237.7265625,-31.95703125,271.0,-101.0,149873.0,-0.3726058900356293,154.0996551513672,-1045.4697265625,0.0,0.0,0.0,0,0,0,0,0.0,0.0,0.0,0
1631795403.797976,44,0,99790,-120.17578125,237.7265625,-31.95703125,283.0,-111.0,149870.0,0.14026880264282227,155.76193237304688,-1045.263671875,0.0,0.0,0.0,0,0,0,0,0.0,0.0,0.0,0
1631795403.945333,44,0,99790,-120.17578125,237.7265625,-31.95703125,295.0,-108.0,149860.0,-0.42328697443008423,160.94900512695312,-1045.23828125,0.0,0.0,0.0,0,0,0,0,0.0,0.0,0.0,0
1631795404.082188,44,0,99799,-120.17578125,237.7265625,-31.95703125,305.0,-111.0,149856.0,-0.07213244587182999,162.77212524414062,-1046.35986328125,0.0,0.0,0.0,0,0,0,0,0.0,0.0,0.0,0
1631795404.184525,44,0,99785,-120.17578125,237.7265625,-31.95703125,300.0,-116.0,149852.0,-0.37184086441993713,162.2197265625,-1046.35595703125,0.0,0.0,0.0,0,0,0,0,0.0,0.0,0.0,0
1631795404.289543,44,0,99796,-120.17578125,237.7265625,-31.95703125,292.0,-118.0,149848.0,-0.3206717073917389,162.9009246826172,-1045.37939453125,0.0,0.0,0.0,0,0,0,0,0.0,0.0,0.0,0
1631795404.495845,44,0,99796,-120.17578125,237.7265625,-31.95703125,296.0,-126.0,149842.0,-0.3832801282405853,162.0189971923828,-1045.24169921875,0.0,0.0,0.0,0,0,0,0,0.0,0.0,0.0,0
1631795404.547853,44,0,99796,-120.17578125,237.7265625,-31.95703125,308.0,-125.0,149841.0,-0.7496934533119202,163.50115966796875,-1044.54638671875,0.0,0.0,0.0,0,0,0,0,0.0,0.0,0.0,0
1631795404.793099,44,0,99793,-120.17578125,237.7265625,-31.95703125,309.0,-109.0,149836.0,6.004303932189941,155.36465454101562,-1036.18994140625,0.0,0.0,0.0,0,0,0,0,0.0,0.0,0.0,0
1631795404.794095,44,0,99788,-120.17578125,237.7265625,-31.95703125,316.0,-100.0,149829.0,-0.36611735820770264,155.75668334960938,-1047.828125,0.0,0.0,0.0,0,0,0,0,0.0,0.0,0.0,0
1631795405.050531,44,0,99796,-120.17578125,237.7265625,-31.95703125,317.0,-90.0,149825.0,9.8620023727417,154.07870483398438,-1046.26220703125,0.0,0.0,0.0,0,0,0,0,0.0,0.0,0.0,0
1631795405.210135,44,0,99790,-120.17578125,237.7265625,-31.95703125,310.0,-74.0,149821.0,8.239945411682129,162.58106994628906,-1050.83642578125,0.0,0.0,0.0,0,0,0,0,0.0,0.0,0.0,0
1631795405.220223,44,0,99790,-120.17578125,237.7265625,-31.95703125,310.0,-62.0,149815.0,0.5425523519515991,153.6790008544922,-1045.2646484375,0.0,0.0,0.0,0,0,0,0,0.0,0.0,0.0,0
1631795405.447065,44,0,99802,-120.17578125,237.7265625,-31.95703125,306.0,-54.0,149811.0,-0.6859423518180847,158.49851989746094,-1043.79541015625,0.0,0.0,0.0,0,0,0,0,0.0,0.0,0.0,0
1631795405.448175,44,0,99802,-120.17578125,237.7265625,-31.95703125,298.0,-62.0,149806.0,-0.32457873225212097,163.14727783203125,-1044.83837890625,0.0,0.0,0.0,0,0,0,0,0.0,0.0,0.0,0
1631795405.534218,44,0,99802,-120.17578125,237.7265625,-31.95703125,289.0,-68.0,149800.0,-0.37719467282295227,159.515869140625,-1037.51708984375,0.0,0.0,0.0,0,0,0,0,0.0,0.0,0.0,0
1631795405.696212,44,0,99793,-120.17578125,237.7265625,-31.95703125,297.0,-76.0,149797.0,-0.5228679180145264,155.7923583984375,-1046.4853515625,0.0,0.0,0.0,0,0,0,0,0.0,0.0,0.0,0
